Channel              :		CH1
Frequency            :		1.060kHz
Period               :		0.944ms
PK-PK                :		224.6mV
Probe attenuation    :		1X
Voltage per ADC value:		0.122070mV
Time interval        :		2.00000us

index		CH1_Voltage(mV)
1		66.406250
2		66.406250
3		60.546875
4		64.453125
5		58.593750
6		62.500000
7		56.640625
8		60.546875
9		54.687500
10		58.593750
11		50.781250
12		56.640625
13		48.828125
14		52.734375
15		46.875000
16		50.781250
17		44.921875
18		48.828125
19		41.015625
20		46.875000
21		39.062500
22		42.968750
23		37.109375
24		41.015625
25		33.203125
26		39.062500
27		31.250000
28		35.156250
29		27.343750
30		33.203125
31		25.390625
32		29.296875
33		23.437500
34		27.343750
35		19.531250
36		25.390625
37		17.578125
38		21.484375
39		13.671875
40		19.531250
41		11.718750
42		15.625000
43		7.812500
44		13.671875
45		5.859375
46		9.765625
47		3.906250
48		7.812500
49		0.000000
50		3.906250
51		-3.906250
52		1.953125
53		-5.859375
54		0.000000
55		-7.812500
56		-3.906250
57		-11.718750
58		-7.812500
59		-15.625000
60		-9.765625
61		-17.578125
62		-13.671875
63		-21.484375
64		-13.671875
65		-23.437500
66		-19.531250
67		-25.390625
68		-21.484375
69		-29.296875
70		-23.437500
71		-31.250000
72		-27.343750
73		-35.156250
74		-29.296875
75		-37.109375
76		-33.203125
77		-39.062500
78		-35.156250
79		-42.968750
80		-39.062500
81		-44.921875
82		-41.015625
83		-48.828125
84		-42.968750
85		-50.781250
86		-46.875000
87		-52.734375
88		-48.828125
89		-56.640625
90		-50.781250
91		-58.593750
92		-54.687500
93		-60.546875
94		-56.640625
95		-64.453125
96		-58.593750
97		-66.406250
98		-62.500000
99		-68.359375
100		-64.453125
101		-72.265625
102		-66.406250
103		-74.218750
104		-68.359375
105		-74.218750
106		-70.312500
107		-78.125000
108		-72.265625
109		-80.078125
110		-76.171875
111		-82.031250
112		-78.125000
113		-83.984375
114		-80.078125
115		-85.937500
116		-82.031250
117		-87.890625
118		-83.984375
119		-87.890625
120		-85.937500
121		-91.796875
122		-87.890625
123		-93.750000
124		-89.843750
125		-93.750000
126		-91.796875
127		-95.703125
128		-91.796875
129		-97.656250
130		-93.750000
131		-97.656250
132		-93.750000
133		-99.609375
134		-95.703125
135		-101.562500
136		-97.656250
137		-101.562500
138		-97.656250
139		-103.515625
140		-99.609375
141		-103.515625
142		-101.562500
143		-105.468750
144		-101.562500
145		-105.468750
146		-103.515625
147		-107.421875
148		-103.515625
149		-107.421875
150		-105.468750
151		-107.421875
152		-105.468750
153		-109.375000
154		-105.468750
155		-109.375000
156		-105.468750
157		-109.375000
158		-107.421875
159		-109.375000
160		-107.421875
161		-109.375000
162		-107.421875
163		-109.375000
164		-107.421875
165		-111.328125
166		-105.468750
167		-109.375000
168		-107.421875
169		-111.328125
170		-107.421875
171		-109.375000
172		-107.421875
173		-109.375000
174		-107.421875
175		-109.375000
176		-105.468750
177		-109.375000
178		-105.468750
179		-109.375000
180		-105.468750
181		-107.421875
182		-103.515625
183		-107.421875
184		-103.515625
185		-105.468750
186		-101.562500
187		-105.468750
188		-101.562500
189		-103.515625
190		-101.562500
191		-103.515625
192		-99.609375
193		-101.562500
194		-97.656250
195		-101.562500
196		-97.656250
197		-99.609375
198		-95.703125
199		-97.656250
200		-95.703125
201		-97.656250
202		-93.750000
203		-95.703125
204		-91.796875
205		-93.750000
206		-89.843750
207		-91.796875
208		-87.890625
209		-89.843750
210		-85.937500
211		-87.890625
212		-83.984375
213		-85.937500
214		-82.031250
215		-85.937500
216		-80.078125
217		-82.031250
218		-78.125000
219		-80.078125
220		-76.171875
221		-78.125000
222		-74.218750
223		-76.171875
224		-72.265625
225		-74.218750
226		-70.312500
227		-72.265625
228		-66.406250
229		-68.359375
230		-64.453125
231		-66.406250
232		-62.500000
233		-64.453125
234		-60.546875
235		-62.500000
236		-58.593750
237		-58.593750
238		-54.687500
239		-56.640625
240		-52.734375
241		-54.687500
242		-48.828125
243		-50.781250
244		-46.875000
245		-48.828125
246		-44.921875
247		-46.875000
248		-41.015625
249		-44.921875
250		-39.062500
251		-41.015625
252		-37.109375
253		-37.109375
254		-33.203125
255		-35.156250
256		-31.250000
257		-33.203125
258		-27.343750
259		-29.296875
260		-25.390625
261		-27.343750
262		-21.484375
263		-23.437500
264		-17.578125
265		-21.484375
266		-15.625000
267		-17.578125
268		-13.671875
269		-15.625000
270		-9.765625
271		-13.671875
272		-7.812500
273		-9.765625
274		-3.906250
275		-5.859375
276		-1.953125
277		-3.906250
278		1.953125
279		0.000000
280		3.906250
281		1.953125
282		7.812500
283		5.859375
284		9.765625
285		7.812500
286		11.718750
287		11.718750
288		15.625000
289		13.671875
290		17.578125
291		15.625000
292		21.484375
293		19.531250
294		23.437500
295		21.484375
296		27.343750
297		25.390625
298		29.296875
299		27.343750
300		31.250000
301		29.296875
302		35.156250
303		33.203125
304		37.109375
305		35.156250
306		39.062500
307		37.109375
308		42.968750
309		41.015625
310		44.921875
311		42.968750
312		46.875000
313		44.921875
314		48.828125
315		46.875000
316		52.734375
317		50.781250
318		54.687500
319		52.734375
320		56.640625
321		54.687500
322		58.593750
323		56.640625
324		60.546875
325		58.593750
326		64.453125
327		62.500000
328		66.406250
329		64.453125
330		68.359375
331		66.406250
332		70.312500
333		68.359375
334		72.265625
335		70.312500
336		74.218750
337		72.265625
338		76.171875
339		74.218750
340		78.125000
341		76.171875
342		80.078125
343		78.125000
344		80.078125
345		78.125000
346		82.031250
347		80.078125
348		83.984375
349		82.031250
350		85.937500
351		83.984375
352		87.890625
353		85.937500
354		87.890625
355		85.937500
356		89.843750
357		87.890625
358		91.796875
359		89.843750
360		93.750000
361		91.796875
362		93.750000
363		91.796875
364		95.703125
365		93.750000
366		97.656250
367		93.750000
368		97.656250
369		95.703125
370		99.609375
371		97.656250
372		99.609375
373		97.656250
374		99.609375
375		97.656250
376		101.562500
377		99.609375
378		101.562500
379		99.609375
380		103.515625
381		99.609375
382		103.515625
383		101.562500
384		105.468750
385		101.562500
386		103.515625
387		101.562500
388		105.468750
389		101.562500
390		105.468750
391		101.562500
392		105.468750
393		103.515625
394		105.468750
395		103.515625
396		105.468750
397		103.515625
398		107.421875
399		103.515625
400		107.421875
401		103.515625
402		105.468750
403		103.515625
404		107.421875
405		101.562500
406		107.421875
407		103.515625
408		105.468750
409		103.515625
410		107.421875
411		101.562500
412		105.468750
413		101.562500
414		105.468750
415		101.562500
416		105.468750
417		99.609375
418		105.468750
419		101.562500
420		103.515625
421		99.609375
422		103.515625
423		99.609375
424		103.515625
425		99.609375
426		103.515625
427		97.656250
428		101.562500
429		97.656250
430		101.562500
431		93.750000
432		99.609375
433		95.703125
434		99.609375
435		95.703125
436		97.656250
437		93.750000
438		97.656250
439		91.796875
440		95.703125
441		91.796875
442		95.703125
443		89.843750
444		93.750000
445		87.890625
446		91.796875
447		87.890625
448		91.796875
449		83.984375
450		89.843750
451		83.984375
452		89.843750
453		82.031250
454		85.937500
455		80.078125
456		83.984375
457		80.078125
458		82.031250
459		78.125000
460		82.031250
461		76.171875
462		80.078125
463		72.265625
464		78.125000
465		70.312500
466		76.171875
467		70.312500
468		74.218750
469		68.359375
470		72.265625
471		64.453125
472		70.312500
473		62.500000
474		68.359375
475		60.546875
476		64.453125
477		58.593750
478		64.453125
479		56.640625
480		60.546875
481		54.687500
482		60.546875
483		50.781250
484		58.593750
485		50.781250
486		54.687500
487		46.875000
488		50.781250
489		44.921875
490		50.781250
491		42.968750
492		46.875000
493		39.062500
494		44.921875
495		37.109375
496		42.968750
497		33.203125
498		41.015625
499		29.296875
500		37.109375
501		29.296875
502		35.156250
503		27.343750
504		31.250000
505		23.437500
506		27.343750
507		21.484375
508		25.390625
509		17.578125
510		23.437500
511		13.671875
512		21.484375
513		11.718750
514		19.531250
515		7.812500
516		15.625000
517		5.859375
518		11.718750
519		3.906250
520		9.765625
521		1.953125
522		5.859375
523		-3.906250
524		3.906250
525		-5.859375
526		1.953125
527		-9.765625
528		-1.953125
529		-11.718750
530		-3.906250
531		-13.671875
532		-7.812500
533		-17.578125
534		-9.765625
535		-19.531250
536		-13.671875
537		-21.484375
538		-15.625000
539		-27.343750
540		-19.531250
541		-29.296875
542		-21.484375
543		-31.250000
544		-23.437500
545		-35.156250
546		-27.343750
547		-37.109375
548		-31.250000
549		-41.015625
550		-33.203125
551		-41.015625
552		-35.156250
553		-42.968750
554		-39.062500
555		-48.828125
556		-42.968750
557		-50.781250
558		-42.968750
559		-54.687500
560		-46.875000
561		-56.640625
562		-48.828125
563		-58.593750
564		-50.781250
565		-62.500000
566		-52.734375
567		-62.500000
568		-56.640625
569		-64.453125
570		-60.546875
571		-66.406250
572		-62.500000
573		-70.312500
574		-64.453125
575		-74.218750
576		-66.406250
577		-74.218750
578		-68.359375
579		-78.125000
580		-70.312500
581		-80.078125
582		-72.265625
583		-82.031250
584		-74.218750
585		-82.031250
586		-78.125000
587		-83.984375
588		-80.078125
589		-87.890625
590		-82.031250
591		-87.890625
592		-83.984375
593		-89.843750
594		-85.937500
595		-91.796875
596		-85.937500
597		-93.750000
598		-87.890625
599		-95.703125
600		-89.843750
601		-95.703125
602		-91.796875
603		-97.656250
604		-93.750000
605		-97.656250
606		-95.703125
607		-101.562500
608		-95.703125
609		-101.562500
610		-95.703125
611		-103.515625
612		-97.656250
613		-105.468750
614		-97.656250
615		-105.468750
616		-99.609375
617		-107.421875
618		-99.609375
619		-105.468750
620		-101.562500
621		-105.468750
622		-103.515625
623		-107.421875
624		-101.562500
625		-109.375000
626		-103.515625
627		-109.375000
628		-103.515625
629		-109.375000
630		-103.515625
631		-109.375000
632		-103.515625
633		-111.328125
634		-103.515625
635		-109.375000
636		-103.515625
637		-107.421875
638		-105.468750
639		-107.421875
640		-105.468750
641		-109.375000
642		-103.515625
643		-111.328125
644		-103.515625
645		-109.375000
646		-103.515625
647		-109.375000
648		-101.562500
649		-109.375000
650		-101.562500
651		-107.421875
652		-101.562500
653		-105.468750
654		-103.515625
655		-103.515625
656		-101.562500
657		-105.468750
658		-99.609375
659		-105.468750
660		-97.656250
661		-103.515625
662		-97.656250
663		-103.515625
664		-95.703125
665		-101.562500
666		-95.703125
667		-99.609375
668		-93.750000
669		-99.609375
670		-93.750000
671		-95.703125
672		-93.750000
673		-95.703125
674		-89.843750
675		-95.703125
676		-87.890625
677		-93.750000
678		-85.937500
679		-91.796875
680		-83.984375
681		-89.843750
682		-82.031250
683		-87.890625
684		-82.031250
685		-87.890625
686		-80.078125
687		-82.031250
688		-78.125000
689		-80.078125
690		-76.171875
691		-80.078125
692		-72.265625
693		-78.125000
694		-70.312500
695		-76.171875
696		-68.359375
697		-74.218750
698		-66.406250
699		-70.312500
700		-62.500000
701		-70.312500
702		-62.500000
703		-66.406250
704		-60.546875
705		-62.500000
706		-58.593750
707		-60.546875
708		-54.687500
709		-58.593750
710		-50.781250
711		-56.640625
712		-48.828125
713		-52.734375
714		-44.921875
715		-50.781250
716		-42.968750
717		-48.828125
718		-41.015625
719		-44.921875
720		-39.062500
721		-41.015625
722		-37.109375
723		-37.109375
724		-33.203125
725		-37.109375
726		-29.296875
727		-35.156250
728		-25.390625
729		-31.250000
730		-23.437500
731		-29.296875
732		-21.484375
733		-25.390625
734		-17.578125
735		-21.484375
736		-15.625000
737		-17.578125
738		-13.671875
739		-15.625000
740		-11.718750
741		-13.671875
742		-5.859375
743		-11.718750
744		-1.953125
745		-7.812500
746		0.000000
747		-5.859375
748		1.953125
749		-3.906250
750		5.859375
751		0.000000
752		7.812500
753		1.953125
754		9.765625
755		7.812500
756		11.718750
757		9.765625
758		17.578125
759		11.718750
760		19.531250
761		13.671875
762		21.484375
763		15.625000
764		25.390625
765		19.531250
766		27.343750
767		23.437500
768		29.296875
769		25.390625
770		33.203125
771		29.296875
772		35.156250
773		31.250000
774		37.109375
775		33.203125
776		41.015625
777		35.156250
778		42.968750
779		39.062500
780		46.875000
781		41.015625
782		48.828125
783		42.968750
784		50.781250
785		44.921875
786		54.687500
787		48.828125
788		54.687500
789		52.734375
790		56.640625
791		54.687500
792		60.546875
793		54.687500
794		62.500000
795		56.640625
796		64.453125
797		60.546875
798		66.406250
799		62.500000
800		68.359375
801		62.500000
802		70.312500
803		66.406250
804		72.265625
805		70.312500
806		74.218750
807		72.265625
808		76.171875
809		72.265625
810		80.078125
811		74.218750
812		82.031250
813		76.171875
814		82.031250
815		76.171875
816		83.984375
817		80.078125
818		85.937500
819		80.078125
820		87.890625
821		83.984375
822		87.890625
823		85.937500
824		89.843750
825		85.937500
826		91.796875
827		85.937500
828		93.750000
829		87.890625
830		95.703125
831		89.843750
832		95.703125
833		91.796875
834		97.656250
835		91.796875
836		97.656250
837		93.750000
838		99.609375
839		95.703125
840		99.609375
841		95.703125
842		101.562500
843		95.703125
844		103.515625
845		97.656250
846		103.515625
847		97.656250
848		103.515625
849		99.609375
850		105.468750
851		99.609375
852		105.468750
853		99.609375
854		105.468750
855		103.515625
856		105.468750
857		103.515625
858		105.468750
859		101.562500
860		107.421875
861		101.562500
862		107.421875
863		101.562500
864		109.375000
865		103.515625
866		109.375000
867		103.515625
868		109.375000
869		101.562500
870		109.375000
871		103.515625
872		107.421875
873		105.468750
874		107.421875
875		103.515625
876		109.375000
877		103.515625
878		109.375000
879		101.562500
880		109.375000
881		101.562500
882		109.375000
883		101.562500
884		107.421875
885		101.562500
886		107.421875
887		101.562500
888		107.421875
889		103.515625
890		105.468750
891		101.562500
892		105.468750
893		99.609375
894		105.468750
895		99.609375
896		105.468750
897		97.656250
898		105.468750
899		97.656250
900		103.515625
901		97.656250
902		103.515625
903		95.703125
904		101.562500
905		95.703125
906		99.609375
907		95.703125
908		97.656250
909		91.796875
910		99.609375
911		89.843750
912		97.656250
913		89.843750
914		95.703125
915		87.890625
916		95.703125
917		87.890625
918		93.750000
919		85.937500
920		93.750000
921		85.937500
922		91.796875
923		83.984375
924		87.890625
925		82.031250
926		85.937500
927		80.078125
928		85.937500
929		78.125000
930		85.937500
931		76.171875
932		83.984375
933		74.218750
934		80.078125
935		72.265625
936		80.078125
937		70.312500
938		78.125000
939		70.312500
940		74.218750
941		68.359375
942		72.265625
943		64.453125
944		72.265625
945		62.500000
946		70.312500
947		58.593750
948		66.406250
949		56.640625
950		64.453125
951		54.687500
952		62.500000
953		52.734375
954		60.546875
955		52.734375
956		56.640625
957		50.781250
958		54.687500
959		44.921875
960		50.781250
961		42.968750
962		50.781250
963		41.015625
964		48.828125
965		39.062500
966		44.921875
967		35.156250
968		42.968750
969		33.203125
970		41.015625
971		31.250000
972		37.109375
973		29.296875
974		33.203125
975		25.390625
976		31.250000
977		21.484375
978		29.296875
979		19.531250
980		27.343750
981		15.625000
982		23.437500
983		13.671875
984		21.484375
985		9.765625
986		17.578125
987		7.812500
988		15.625000
989		7.812500
990		11.718750
991		3.906250
992		7.812500
993		-1.953125
994		5.859375
995		-1.953125
996		3.906250
997		-5.859375
998		1.953125
999		-9.765625
1000		-1.953125
1001		-11.718750
1002		-3.906250
1003		-13.671875
1004		-7.812500
1005		-15.625000
1006		-9.765625
1007		-19.531250
1008		-15.625000
1009		-23.437500
1010		-17.578125
1011		-25.390625
1012		-19.531250
1013		-29.296875
1014		-21.484375
1015		-33.203125
1016		-25.390625
1017		-35.156250
1018		-27.343750
1019		-37.109375
1020		-31.250000
1021		-39.062500
1022		-33.203125
1023		-41.015625
1024		-37.109375
1025		-44.921875
1026		-41.015625
1027		-48.828125
1028		-41.015625
1029		-50.781250
1030		-42.968750
1031		-54.687500
1032		-44.921875
1033		-56.640625
1034		-46.875000
1035		-58.593750
1036		-50.781250
1037		-60.546875
1038		-52.734375
1039		-62.500000
1040		-58.593750
1041		-64.453125
1042		-60.546875
1043		-68.359375
1044		-62.500000
1045		-70.312500
1046		-62.500000
1047		-72.265625
1048		-66.406250
1049		-74.218750
1050		-68.359375
1051		-78.125000
1052		-70.312500
1053		-80.078125
1054		-72.265625
1055		-80.078125
1056		-74.218750
1057		-82.031250
1058		-78.125000
1059		-83.984375
1060		-80.078125
1061		-87.890625
1062		-80.078125
1063		-87.890625
1064		-82.031250
1065		-89.843750
1066		-83.984375
1067		-91.796875
1068		-85.937500
1069		-93.750000
1070		-87.890625
1071		-95.703125
1072		-87.890625
1073		-95.703125
1074		-89.843750
1075		-95.703125
1076		-93.750000
1077		-99.609375
1078		-93.750000
1079		-101.562500
1080		-93.750000
1081		-101.562500
1082		-95.703125
1083		-103.515625
1084		-95.703125
1085		-103.515625
1086		-97.656250
1087		-103.515625
1088		-97.656250
1089		-105.468750
1090		-97.656250
1091		-103.515625
1092		-101.562500
1093		-105.468750
1094		-101.562500
1095		-107.421875
1096		-101.562500
1097		-109.375000
1098		-101.562500
1099		-107.421875
1100		-101.562500
1101		-107.421875
1102		-101.562500
1103		-107.421875
1104		-101.562500
1105		-109.375000
1106		-101.562500
1107		-107.421875
1108		-103.515625
1109		-105.468750
1110		-103.515625
1111		-107.421875
1112		-101.562500
1113		-107.421875
1114		-101.562500
1115		-107.421875
1116		-101.562500
1117		-107.421875
1118		-101.562500
1119		-107.421875
1120		-99.609375
1121		-105.468750
1122		-99.609375
1123		-105.468750
1124		-99.609375
1125		-103.515625
1126		-99.609375
1127		-103.515625
1128		-97.656250
1129		-103.515625
1130		-97.656250
1131		-101.562500
1132		-95.703125
1133		-101.562500
1134		-95.703125
1135		-99.609375
1136		-93.750000
1137		-99.609375
1138		-91.796875
1139		-97.656250
1140		-91.796875
1141		-93.750000
1142		-91.796875
1143		-93.750000
1144		-89.843750
1145		-93.750000
1146		-85.937500
1147		-91.796875
1148		-83.984375
1149		-89.843750
1150		-82.031250
1151		-87.890625
1152		-82.031250
1153		-87.890625
1154		-78.125000
1155		-85.937500
1156		-78.125000
1157		-82.031250
1158		-78.125000
1159		-80.078125
1160		-74.218750
1161		-78.125000
1162		-70.312500
1163		-76.171875
1164		-68.359375
1165		-74.218750
1166		-66.406250
1167		-72.265625
1168		-64.453125
1169		-70.312500
1170		-62.500000
1171		-68.359375
1172		-60.546875
1173		-66.406250
1174		-60.546875
1175		-60.546875
1176		-56.640625
1177		-58.593750
1178		-52.734375
1179		-58.593750
1180		-50.781250
1181		-54.687500
1182		-46.875000
1183		-52.734375
1184		-44.921875
1185		-50.781250
1186		-42.968750
1187		-48.828125
1188		-39.062500
1189		-44.921875
1190		-37.109375
1191		-41.015625
1192		-35.156250
1193		-37.109375
1194		-33.203125
1195		-37.109375
1196		-29.296875
1197		-35.156250
1198		-25.390625
1199		-31.250000
1200		-21.484375
1201		-27.343750
1202		-21.484375
1203		-25.390625
1204		-17.578125
1205		-23.437500
1206		-13.671875
1207		-19.531250
1208		-13.671875
1209		-15.625000
1210		-9.765625
1211		-11.718750
1212		-5.859375
1213		-11.718750
1214		-3.906250
1215		-9.765625
1216		0.000000
1217		-5.859375
1218		1.953125
1219		-1.953125
1220		5.859375
1221		0.000000
1222		7.812500
1223		1.953125
1224		9.765625
1225		7.812500
1226		11.718750
1227		9.765625
1228		15.625000
1229		11.718750
1230		19.531250
1231		13.671875
1232		21.484375
1233		15.625000
1234		25.390625
1235		19.531250
1236		27.343750
1237		23.437500
1238		31.250000
1239		25.390625
1240		33.203125
1241		29.296875
1242		33.203125
1243		33.203125
1244		37.109375
1245		33.203125
1246		41.015625
1247		37.109375
1248		42.968750
1249		39.062500
1250		44.921875
1251		41.015625
1252		48.828125
1253		42.968750
1254		50.781250
1255		44.921875
1256		52.734375
1257		48.828125
1258		54.687500
1259		52.734375
1260		56.640625
1261		54.687500
1262		60.546875
1263		56.640625
1264		62.500000
1265		58.593750
1266		64.453125
1267		60.546875
1268		66.406250
1269		62.500000
1270		68.359375
1271		62.500000
1272		72.265625
1273		66.406250
1274		74.218750
1275		70.312500
1276		74.218750
1277		72.265625
1278		76.171875
1279		72.265625
1280		80.078125
1281		74.218750
1282		82.031250
1283		76.171875
1284		82.031250
1285		78.125000
1286		83.984375
1287		80.078125
1288		87.890625
1289		82.031250
1290		87.890625
1291		83.984375
1292		87.890625
1293		85.937500
1294		89.843750
1295		85.937500
1296		91.796875
1297		87.890625
1298		93.750000
1299		87.890625
1300		95.703125
1301		89.843750
1302		97.656250
1303		89.843750
1304		97.656250
1305		91.796875
1306		99.609375
1307		93.750000
1308		99.609375
1309		97.656250
1310		99.609375
1311		97.656250
1312		99.609375
1313		95.703125
1314		103.515625
1315		97.656250
1316		103.515625
1317		97.656250
1318		105.468750
1319		99.609375
1320		105.468750
1321		99.609375
1322		107.421875
1323		99.609375
1324		107.421875
1325		101.562500
1326		107.421875
1327		103.515625
1328		107.421875
1329		103.515625
1330		109.375000
1331		103.515625
1332		109.375000
1333		103.515625
1334		109.375000
1335		103.515625
1336		109.375000
1337		103.515625
1338		111.328125
1339		103.515625
1340		109.375000
1341		103.515625
1342		111.328125
1343		105.468750
1344		109.375000
1345		105.468750
1346		109.375000
1347		103.515625
1348		109.375000
1349		103.515625
1350		111.328125
1351		103.515625
1352		109.375000
1353		103.515625
1354		109.375000
1355		103.515625
1356		109.375000
1357		101.562500
1358		109.375000
1359		103.515625
1360		107.421875
1361		103.515625
1362		107.421875
1363		99.609375
1364		107.421875
1365		99.609375
1366		105.468750
1367		99.609375
1368		105.468750
1369		99.609375
1370		105.468750
1371		97.656250
1372		103.515625
1373		95.703125
1374		103.515625
1375		97.656250
1376		101.562500
1377		97.656250
1378		99.609375
1379		93.750000
1380		99.609375
1381		91.796875
1382		99.609375
1383		91.796875
1384		97.656250
1385		89.843750
1386		97.656250
1387		89.843750
1388		95.703125
1389		85.937500
1390		93.750000
1391		85.937500
1392		91.796875
1393		85.937500
1394		89.843750
1395		83.984375
1396		87.890625
1397		80.078125
1398		87.890625
1399		78.125000
1400		87.890625
1401		78.125000
1402		83.984375
1403		76.171875
1404		82.031250
1405		74.218750
1406		82.031250
1407		72.265625
1408		80.078125
1409		70.312500
1410		78.125000
1411		70.312500
1412		74.218750
1413		66.406250
1414		72.265625
1415		64.453125
1416		72.265625
1417		62.500000
1418		68.359375
1419		58.593750
1420		66.406250
1421		56.640625
1422		64.453125
1423		54.687500
1424		62.500000
1425		54.687500
1426		60.546875
1427		50.781250
1428		54.687500
1429		48.828125
1430		52.734375
1431		44.921875
1432		52.734375
1433		42.968750
1434		48.828125
1435		41.015625
1436		46.875000
1437		39.062500
1438		44.921875
1439		35.156250
1440		41.015625
1441		33.203125
1442		39.062500
1443		31.250000
1444		35.156250
1445		29.296875
1446		33.203125
1447		23.437500
1448		31.250000
1449		21.484375
1450		29.296875
1451		17.578125
1452		25.390625
1453		15.625000
1454		23.437500
1455		11.718750
1456		21.484375
1457		9.765625
1458		17.578125
1459		9.765625
1460		13.671875
1461		5.859375
1462		9.765625
1463		1.953125
1464		7.812500
1465		-1.953125
1466		5.859375
1467		-3.906250
1468		3.906250
1469		-7.812500
1470		1.953125
1471		-9.765625
1472		-1.953125
1473		-11.718750
1474		-5.859375
1475		-15.625000
1476		-7.812500
1477		-17.578125
1478		-11.718750
1479		-19.531250
1480		-15.625000
1481		-23.437500
1482		-17.578125
1483		-27.343750
1484		-19.531250
1485		-31.250000
1486		-23.437500
1487		-33.203125
1488		-25.390625
1489		-35.156250
1490		-27.343750
1491		-39.062500
1492		-31.250000
1493		-39.062500
1494		-33.203125
1495		-42.968750
1496		-39.062500
1497		-46.875000
1498		-39.062500
1499		-48.828125
1500		-41.015625
1501		-52.734375
1502		-44.921875
1503		-54.687500
1504		-46.875000
1505		-56.640625
1506		-48.828125
1507		-60.546875
1508		-52.734375
1509		-60.546875
1510		-54.687500
1511		-62.500000
1512		-58.593750
1513		-64.453125
1514		-60.546875
1515		-70.312500
1516		-60.546875
1517		-72.265625
1518		-64.453125
1519		-72.265625
1520		-66.406250
1521		-76.171875
1522		-68.359375
1523		-78.125000
1524		-70.312500
1525		-80.078125
1526		-72.265625
1527		-80.078125
1528		-76.171875
1529		-82.031250
1530		-78.125000
1531		-85.937500
1532		-80.078125
1533		-87.890625
1534		-80.078125
1535		-89.843750
1536		-82.031250
1537		-91.796875
1538		-83.984375
1539		-93.750000
1540		-85.937500
1541		-93.750000
1542		-87.890625
1543		-95.703125
1544		-87.890625
1545		-95.703125
1546		-91.796875
1547		-97.656250
1548		-91.796875
1549		-99.609375
1550		-93.750000
1551		-101.562500
1552		-93.750000
1553		-101.562500
1554		-95.703125
1555		-103.515625
1556		-95.703125
1557		-103.515625
1558		-97.656250
1559		-105.468750
1560		-97.656250
1561		-103.515625
1562		-101.562500
1563		-103.515625
1564		-101.562500
1565		-107.421875
1566		-99.609375
1567		-107.421875
1568		-101.562500
1569		-107.421875
1570		-101.562500
1571		-107.421875
1572		-101.562500
1573		-107.421875
1574		-101.562500
1575		-109.375000
1576		-101.562500
1577		-107.421875
1578		-101.562500
1579		-105.468750
1580		-103.515625
1581		-109.375000
1582		-101.562500
1583		-107.421875
1584		-101.562500
1585		-109.375000
1586		-101.562500
1587		-107.421875
1588		-101.562500
1589		-107.421875
1590		-101.562500
1591		-107.421875
1592		-99.609375
1593		-107.421875
1594		-99.609375
1595		-103.515625
1596		-101.562500
1597		-103.515625
1598		-99.609375
1599		-103.515625
1600		-97.656250
1601		-103.515625
1602		-95.703125
1603		-101.562500
1604		-95.703125
1605		-101.562500
1606		-93.750000
1607		-99.609375
1608		-93.750000
1609		-99.609375
1610		-91.796875
1611		-97.656250
1612		-91.796875
1613		-93.750000
1614		-91.796875
1615		-93.750000
1616		-87.890625
1617		-93.750000
1618		-85.937500
1619		-91.796875
1620		-85.937500
1621		-89.843750
1622		-82.031250
1623		-87.890625
1624		-80.078125
1625		-85.937500
1626		-80.078125
1627		-83.984375
1628		-78.125000
1629		-82.031250
1630		-76.171875
1631		-80.078125
1632		-74.218750
1633		-78.125000
1634		-72.265625
1635		-76.171875
1636		-68.359375
1637		-74.218750
1638		-66.406250
1639		-72.265625
1640		-64.453125
1641		-70.312500
1642		-62.500000
1643		-68.359375
1644		-60.546875
1645		-62.500000
1646		-58.593750
1647		-60.546875
1648		-56.640625
1649		-58.593750
1650		-52.734375
1651		-58.593750
1652		-48.828125
1653		-54.687500
1654		-46.875000
1655		-52.734375
1656		-44.921875
1657		-48.828125
1658		-42.968750
1659		-46.875000
1660		-39.062500
1661		-42.968750
1662		-39.062500
1663		-39.062500
1664		-35.156250
1665		-37.109375
1666		-31.250000
1667		-35.156250
1668		-27.343750
1669		-31.250000
1670		-25.390625
1671		-31.250000
1672		-21.484375
1673		-27.343750
1674		-19.531250
1675		-25.390625
1676		-17.578125
1677		-21.484375
1678		-15.625000
1679		-17.578125
1680		-13.671875
1681		-13.671875
1682		-9.765625
1683		-13.671875
1684		-5.859375
1685		-9.765625
1686		-1.953125
1687		-7.812500
1688		0.000000
1689		-3.906250
1690		3.906250
1691		-1.953125
1692		5.859375
1693		1.953125
1694		7.812500
1695		3.906250
1696		9.765625
1697		7.812500
1698		13.671875
1699		9.765625
1700		17.578125
1701		11.718750
1702		19.531250
1703		13.671875
1704		21.484375
1705		17.578125
1706		25.390625
1707		19.531250
1708		29.296875
1709		23.437500
1710		31.250000
1711		25.390625
1712		33.203125
1713		31.250000
1714		35.156250
1715		33.203125
1716		39.062500
1717		33.203125
1718		41.015625
1719		35.156250
1720		44.921875
1721		39.062500
1722		46.875000
1723		41.015625
1724		50.781250
1725		44.921875
1726		52.734375
1727		46.875000
1728		54.687500
1729		50.781250
1730		54.687500
1731		52.734375
1732		56.640625
1733		52.734375
1734		60.546875
1735		56.640625
1736		62.500000
1737		58.593750
1738		66.406250
1739		60.546875
1740		66.406250
1741		62.500000
1742		70.312500
1743		64.453125
1744		72.265625
1745		66.406250
1746		72.265625
1747		70.312500
1748		74.218750
1749		70.312500
1750		78.125000
1751		72.265625
1752		80.078125
1753		74.218750
1754		82.031250
1755		76.171875
1756		83.984375
1757		78.125000
1758		83.984375
1759		80.078125
1760		85.937500
1761		80.078125
1762		87.890625
1763		83.984375
1764		87.890625
1765		85.937500
1766		91.796875
1767		85.937500
1768		91.796875
1769		85.937500
1770		93.750000
1771		87.890625
1772		95.703125
1773		89.843750
1774		97.656250
1775		89.843750
1776		97.656250
1777		91.796875
1778		99.609375
1779		93.750000
1780		97.656250
1781		95.703125
1782		99.609375
1783		95.703125
1784		101.562500
1785		95.703125
1786		103.515625
1787		97.656250
1788		103.515625
1789		97.656250
1790		105.468750
1791		97.656250
1792		105.468750
1793		99.609375
1794		105.468750
1795		99.609375
1796		105.468750
1797		103.515625
1798		105.468750
1799		101.562500
1800		107.421875
1801		101.562500
1802		107.421875
1803		101.562500
1804		107.421875
1805		101.562500
1806		109.375000
1807		101.562500
1808		109.375000
1809		101.562500
1810		109.375000
1811		103.515625
1812		109.375000
1813		105.468750
1814		107.421875
1815		105.468750
1816		107.421875
1817		103.515625
1818		109.375000
1819		103.515625
1820		109.375000
1821		101.562500
1822		109.375000
1823		101.562500
1824		109.375000
1825		101.562500
1826		107.421875
1827		101.562500
1828		107.421875
1829		101.562500
1830		107.421875
1831		103.515625
1832		105.468750
1833		99.609375
1834		105.468750
1835		99.609375
1836		105.468750
1837		97.656250
1838		105.468750
1839		97.656250
1840		105.468750
1841		97.656250
1842		103.515625
1843		95.703125
1844		103.515625
1845		95.703125
1846		101.562500
1847		95.703125
1848		99.609375
1849		95.703125
1850		97.656250
1851		91.796875
1852		97.656250
1853		91.796875
1854		97.656250
1855		89.843750
1856		95.703125
1857		87.890625
1858		95.703125
1859		85.937500
1860		93.750000
1861		85.937500
1862		91.796875
1863		83.984375
1864		91.796875
1865		83.984375
1866		87.890625
1867		80.078125
1868		85.937500
1869		78.125000
1870		85.937500
1871		76.171875
1872		85.937500
1873		76.171875
1874		82.031250
1875		74.218750
1876		80.078125
1877		72.265625
1878		78.125000
1879		70.312500
1880		78.125000
1881		70.312500
1882		74.218750
1883		66.406250
1884		72.265625
1885		64.453125
1886		72.265625
1887		60.546875
1888		70.312500
1889		58.593750
1890		66.406250
1891		56.640625
1892		64.453125
1893		54.687500
1894		62.500000
1895		52.734375
1896		60.546875
1897		52.734375
1898		56.640625
1899		48.828125
1900		52.734375
1901		46.875000
1902		50.781250
1903		42.968750
1904		50.781250
1905		39.062500
1906		48.828125
1907		37.109375
1908		44.921875
1909		35.156250
1910		42.968750
1911		33.203125
1912		39.062500
1913		31.250000
1914		37.109375
1915		29.296875
1916		33.203125
1917		25.390625
1918		31.250000
1919		21.484375
1920		29.296875
1921		19.531250
1922		25.390625
1923		15.625000
1924		23.437500
1925		11.718750
1926		21.484375
1927		9.765625
1928		17.578125
1929		7.812500
1930		15.625000
1931		5.859375
1932		11.718750
1933		3.906250
1934		7.812500
1935		-1.953125
1936		5.859375
1937		-3.906250
1938		3.906250
1939		-5.859375
1940		1.953125
1941		-9.765625
1942		-1.953125
1943		-13.671875
1944		-3.906250
1945		-15.625000
1946		-7.812500
1947		-15.625000
1948		-11.718750
1949		-19.531250
1950		-15.625000
1951		-23.437500
1952		-17.578125
1953		-27.343750
1954		-19.531250
1955		-29.296875
1956		-21.484375
1957		-33.203125
1958		-25.390625
1959		-35.156250
1960		-27.343750
1961		-39.062500
1962		-31.250000
1963		-41.015625
1964		-33.203125
1965		-41.015625
1966		-37.109375
1967		-44.921875
1968		-41.015625
1969		-50.781250
1970		-41.015625
1971		-50.781250
1972		-42.968750
1973		-54.687500
1974		-46.875000
1975		-56.640625
1976		-50.781250
1977		-58.593750
1978		-52.734375
1979		-62.500000
1980		-54.687500
1981		-62.500000
1982		-58.593750
1983		-64.453125
1984		-60.546875
1985		-70.312500
1986		-62.500000
1987		-72.265625
1988		-64.453125
1989		-74.218750
1990		-66.406250
1991		-76.171875
1992		-68.359375
1993		-78.125000
1994		-70.312500
1995		-80.078125
1996		-74.218750
1997		-80.078125
1998		-74.218750
1999		-82.031250
2000		-78.125000
2001		-83.984375
2002		-80.078125
2003		-87.890625
2004		-80.078125
2005		-89.843750
2006		-82.031250
2007		-91.796875
2008		-83.984375
2009		-93.750000
2010		-85.937500
2011		-93.750000
2012		-87.890625
2013		-95.703125
2014		-89.843750
2015		-95.703125
2016		-91.796875
2017		-95.703125
2018		-93.750000
2019		-99.609375
2020		-93.750000
2021		-99.609375
2022		-93.750000
2023		-103.515625
2024		-95.703125
2025		-103.515625
2026		-95.703125
2027		-103.515625
2028		-97.656250
2029		-105.468750
2030		-97.656250
2031		-103.515625
2032		-99.609375
2033		-103.515625
2034		-101.562500
2035		-107.421875
2036		-101.562500
2037		-107.421875
2038		-101.562500
2039		-107.421875
2040		-101.562500
2041		-109.375000
2042		-101.562500
2043		-109.375000
2044		-103.515625
2045		-109.375000
2046		-103.515625
2047		-109.375000
2048		-103.515625
2049		-107.421875
2050		-105.468750
2051		-107.421875
2052		-105.468750
2053		-109.375000
2054		-103.515625
2055		-109.375000
2056		-103.515625
2057		-109.375000
2058		-101.562500
2059		-109.375000
2060		-101.562500
2061		-109.375000
2062		-101.562500
2063		-107.421875
2064		-101.562500
2065		-105.468750
2066		-101.562500
2067		-103.515625
2068		-101.562500
2069		-105.468750
2070		-99.609375
2071		-105.468750
2072		-97.656250
2073		-103.515625
2074		-97.656250
2075		-103.515625
2076		-95.703125
2077		-101.562500
2078		-95.703125
2079		-101.562500
2080		-93.750000
2081		-99.609375
2082		-91.796875
2083		-95.703125
2084		-93.750000
2085		-93.750000
2086		-89.843750
2087		-95.703125
2088		-87.890625
2089		-93.750000
2090		-85.937500
2091		-91.796875
2092		-83.984375
2093		-89.843750
2094		-82.031250
2095		-87.890625
2096		-82.031250
2097		-87.890625
2098		-80.078125
2099		-82.031250
2100		-78.125000
2101		-82.031250
2102		-76.171875
2103		-80.078125
2104		-74.218750
2105		-78.125000
2106		-72.265625
2107		-76.171875
2108		-68.359375
2109		-74.218750
2110		-66.406250
2111		-72.265625
2112		-64.453125
2113		-68.359375
2114		-62.500000
2115		-66.406250
2116		-60.546875
2117		-62.500000
2118		-58.593750
2119		-60.546875
2120		-54.687500
2121		-58.593750
2122		-52.734375
2123		-58.593750
2124		-48.828125
2125		-54.687500
2126		-46.875000
2127		-52.734375
2128		-44.921875
2129		-48.828125
2130		-41.015625
2131		-46.875000
2132		-41.015625
2133		-42.968750
2134		-37.109375
2135		-41.015625
2136		-35.156250
2137		-37.109375
2138		-31.250000
2139		-35.156250
2140		-27.343750
2141		-33.203125
2142		-25.390625
2143		-31.250000
2144		-21.484375
2145		-27.343750
2146		-19.531250
2147		-25.390625
2148		-15.625000
2149		-19.531250
2150		-15.625000
2151		-17.578125
2152		-11.718750
2153		-15.625000
2154		-7.812500
2155		-13.671875
2156		-3.906250
2157		-9.765625
2158		-1.953125
2159		-7.812500
2160		1.953125
2161		-3.906250
2162		3.906250
2163		-1.953125
2164		5.859375
2165		0.000000
2166		7.812500
2167		5.859375
2168		9.765625
2169		7.812500
2170		13.671875
2171		9.765625
2172		17.578125
2173		13.671875
2174		21.484375
2175		15.625000
2176		23.437500
2177		17.578125
2178		25.390625
2179		19.531250
2180		29.296875
2181		23.437500
2182		31.250000
2183		27.343750
2184		31.250000
2185		31.250000
2186		35.156250
2187		31.250000
2188		39.062500
2189		33.203125
2190		42.968750
2191		37.109375
2192		44.921875
2193		39.062500
2194		46.875000
2195		42.968750
2196		48.828125
2197		42.968750
2198		50.781250
2199		46.875000
2200		52.734375
2201		50.781250
2202		54.687500
2203		52.734375
2204		58.593750
2205		52.734375
2206		60.546875
2207		54.687500
2208		62.500000
2209		58.593750
2210		64.453125
2211		60.546875
2212		68.359375
2213		62.500000
2214		70.312500
2215		64.453125
2216		72.265625
2217		68.359375
2218		72.265625
2219		70.312500
2220		74.218750
2221		70.312500
2222		78.125000
2223		72.265625
2224		80.078125
2225		74.218750
2226		82.031250
2227		76.171875
2228		83.984375
2229		78.125000
2230		83.984375
2231		78.125000
2232		85.937500
2233		82.031250
2234		85.937500
2235		83.984375
2236		87.890625
2237		83.984375
2238		89.843750
2239		85.937500
2240		91.796875
2241		85.937500
2242		93.750000
2243		87.890625
2244		95.703125
2245		89.843750
2246		95.703125
2247		89.843750
2248		97.656250
2249		91.796875
2250		97.656250
2251		93.750000
2252		97.656250
2253		93.750000
2254		101.562500
2255		93.750000
2256		101.562500
2257		95.703125
2258		101.562500
2259		95.703125
2260		103.515625
2261		97.656250
2262		103.515625
2263		97.656250
2264		105.468750
2265		97.656250
2266		105.468750
2267		101.562500
2268		103.515625
2269		101.562500
2270		103.515625
2271		99.609375
2272		107.421875
2273		99.609375
2274		107.421875
2275		101.562500
2276		107.421875
2277		99.609375
2278		107.421875
2279		101.562500
2280		107.421875
2281		101.562500
2282		107.421875
2283		101.562500
2284		107.421875
2285		103.515625
2286		105.468750
2287		101.562500
2288		107.421875
2289		101.562500
2290		107.421875
2291		101.562500
2292		107.421875
2293		101.562500
2294		107.421875
2295		101.562500
2296		107.421875
2297		101.562500
2298		107.421875
2299		99.609375
2300		107.421875
2301		101.562500
2302		103.515625
2303		101.562500
2304		103.515625
2305		99.609375
2306		105.468750
2307		97.656250
2308		103.515625
2309		97.656250
2310		103.515625
2311		95.703125
2312		103.515625
2313		95.703125
2314		101.562500
2315		93.750000
2316		101.562500
2317		95.703125
2318		99.609375
2319		93.750000
2320		97.656250
2321		91.796875
2322		97.656250
2323		89.843750
2324		97.656250
2325		87.890625
2326		95.703125
2327		87.890625
2328		93.750000
2329		85.937500
2330		93.750000
2331		85.937500
2332		91.796875
2333		83.984375
2334		89.843750
2335		83.984375
2336		87.890625
2337		80.078125
2338		85.937500
2339		80.078125
2340		85.937500
2341		78.125000
2342		83.984375
2343		76.171875
2344		82.031250
2345		72.265625
2346		82.031250
2347		72.265625
2348		78.125000
2349		70.312500
2350		78.125000
2351		70.312500
2352		74.218750
2353		68.359375
2354		72.265625
2355		64.453125
2356		70.312500
2357		62.500000
2358		68.359375
2359		60.546875
2360		66.406250
2361		58.593750
2362		64.453125
2363		54.687500
2364		62.500000
2365		52.734375
2366		60.546875
2367		52.734375
2368		58.593750
2369		48.828125
2370		52.734375
2371		44.921875
2372		50.781250
2373		42.968750
2374		50.781250
2375		41.015625
2376		48.828125
2377		37.109375
2378		44.921875
2379		35.156250
2380		42.968750
2381		33.203125
2382		41.015625
2383		31.250000
2384		37.109375
2385		29.296875
2386		33.203125
2387		27.343750
2388		31.250000
2389		21.484375
2390		29.296875
2391		19.531250
2392		27.343750
2393		15.625000
2394		23.437500
2395		13.671875
2396		21.484375
2397		11.718750
2398		19.531250
2399		7.812500
2400		15.625000
2401		5.859375
2402		11.718750
2403		3.906250
2404		7.812500
2405		-1.953125
2406		5.859375
2407		-3.906250
2408		3.906250
2409		-7.812500
2410		0.000000
2411		-9.765625
2412		-1.953125
2413		-13.671875
2414		-3.906250
2415		-15.625000
2416		-7.812500
2417		-17.578125
2418		-9.765625
2419		-19.531250
2420		-15.625000
2421		-23.437500
2422		-17.578125
2423		-27.343750
2424		-19.531250
2425		-31.250000
2426		-21.484375
2427		-33.203125
2428		-25.390625
2429		-37.109375
2430		-27.343750
2431		-37.109375
2432		-31.250000
2433		-41.015625
2434		-33.203125
2435		-41.015625
2436		-37.109375
2437		-44.921875
2438		-41.015625
2439		-48.828125
2440		-42.968750
2441		-50.781250
2442		-44.921875
2443		-54.687500
2444		-46.875000
2445		-56.640625
2446		-48.828125
2447		-60.546875
2448		-50.781250
2449		-62.500000
2450		-54.687500
2451		-62.500000
2452		-56.640625
2453		-64.453125
2454		-60.546875
2455		-70.312500
2456		-62.500000
2457		-72.265625
2458		-64.453125
2459		-74.218750
2460		-66.406250
2461		-76.171875
2462		-68.359375
2463		-78.125000
2464		-70.312500
2465		-80.078125
2466		-72.265625
2467		-82.031250
2468		-76.171875
2469		-83.984375
2470		-78.125000
2471		-85.937500
2472		-82.031250
2473		-89.843750
2474		-82.031250
2475		-89.843750
2476		-83.984375
2477		-91.796875
2478		-85.937500
2479		-93.750000
2480		-85.937500
2481		-95.703125
2482		-87.890625
2483		-97.656250
2484		-89.843750
2485		-97.656250
2486		-91.796875
2487		-97.656250
2488		-95.703125
2489		-101.562500
2490		-95.703125
2491		-103.515625
2492		-95.703125
2493		-103.515625
2494		-97.656250
2495		-105.468750
2496		-97.656250
2497		-105.468750
2498		-99.609375
2499		-107.421875
2500		-99.609375
2501		-107.421875
2502		-101.562500
2503		-107.421875
2504		-103.515625
2505		-107.421875
2506		-103.515625
2507		-109.375000
2508		-103.515625
2509		-111.328125
2510		-103.515625
2511		-111.328125
2512		-103.515625
2513		-111.328125
2514		-105.468750
2515		-111.328125
2516		-105.468750
2517		-113.281250
2518		-105.468750
2519		-109.375000
2520		-107.421875
2521		-109.375000
2522		-107.421875
2523		-111.328125
2524		-105.468750
2525		-113.281250
2526		-105.468750
2527		-111.328125
2528		-105.468750
2529		-111.328125
2530		-105.468750
2531		-111.328125
2532		-105.468750
2533		-111.328125
2534		-105.468750
2535		-109.375000
2536		-103.515625
2537		-107.421875
2538		-105.468750
2539		-107.421875
2540		-101.562500
2541		-107.421875
2542		-101.562500
2543		-107.421875
2544		-99.609375
2545		-105.468750
2546		-99.609375
2547		-105.468750
2548		-97.656250
2549		-105.468750
2550		-97.656250
2551		-103.515625
2552		-95.703125
2553		-99.609375
2554		-97.656250
2555		-97.656250
2556		-95.703125
2557		-99.609375
2558		-91.796875
2559		-97.656250
2560		-91.796875
2561		-95.703125
2562		-89.843750
2563		-93.750000
2564		-87.890625
2565		-93.750000
2566		-85.937500
2567		-89.843750
2568		-83.984375
2569		-89.843750
2570		-82.031250
2571		-85.937500
2572		-82.031250
2573		-83.984375
2574		-78.125000
2575		-82.031250
2576		-76.171875
2577		-82.031250
2578		-74.218750
2579		-78.125000
2580		-72.265625
2581		-76.171875
2582		-68.359375
2583		-74.218750
2584		-66.406250
2585		-72.265625
2586		-64.453125
2587		-68.359375
2588		-64.453125
2589		-64.453125
2590		-60.546875
2591		-64.453125
2592		-56.640625
2593		-62.500000
2594		-54.687500
2595		-60.546875
2596		-52.734375
2597		-56.640625
2598		-48.828125
2599		-54.687500
2600		-46.875000
2601		-52.734375
2602		-44.921875
2603		-46.875000
2604		-42.968750
2605		-44.921875
2606		-41.015625
2607		-41.015625
2608		-35.156250
2609		-41.015625
2610		-33.203125
2611		-37.109375
2612		-29.296875
2613		-35.156250
2614		-27.343750
2615		-31.250000
2616		-23.437500
2617		-29.296875
2618		-21.484375
2619		-27.343750
2620		-19.531250
2621		-21.484375
2622		-17.578125
2623		-19.531250
2624		-13.671875
2625		-17.578125
2626		-9.765625
2627		-15.625000
2628		-7.812500
2629		-13.671875
2630		-3.906250
2631		-9.765625
2632		-1.953125
2633		-5.859375
2634		1.953125
2635		-3.906250
2636		3.906250
2637		1.953125
2638		5.859375
2639		3.906250
2640		7.812500
2641		5.859375
2642		13.671875
2643		7.812500
2644		15.625000
2645		11.718750
2646		19.531250
2647		13.671875
2648		21.484375
2649		15.625000
2650		23.437500
2651		17.578125
2652		27.343750
2653		21.484375
2654		27.343750
2655		25.390625
2656		31.250000
2657		29.296875
2658		35.156250
2659		31.250000
2660		37.109375
2661		33.203125
2662		39.062500
2663		35.156250
2664		42.968750
2665		37.109375
2666		44.921875
2667		39.062500
2668		46.875000
2669		42.968750
2670		48.828125
2671		46.875000
2672		50.781250
2673		48.828125
2674		52.734375
2675		48.828125
2676		56.640625
2677		50.781250
2678		58.593750
2679		54.687500
2680		62.500000
2681		56.640625
2682		64.453125
2683		58.593750
2684		64.453125
2685		60.546875
2686		68.359375
2687		64.453125
2688		68.359375
2689		66.406250
2690		70.312500
2691		66.406250
2692		74.218750
2693		68.359375
2694		76.171875
2695		70.312500
2696		78.125000
2697		72.265625
2698		80.078125
2699		74.218750
2700		82.031250
2701		76.171875
2702		83.984375
2703		78.125000
2704		83.984375
2705		80.078125
2706		83.984375
2707		82.031250
2708		87.890625
2709		82.031250
2710		89.843750
2711		83.984375
2712		91.796875
2713		83.984375
2714		91.796875
2715		85.937500
2716		93.750000
2717		87.890625
2718		95.703125
2719		89.843750
2720		95.703125
2721		91.796875
2722		95.703125
2723		93.750000
2724		95.703125
2725		93.750000
2726		99.609375
2727		91.796875
2728		99.609375
2729		93.750000
2730		101.562500
2731		95.703125
2732		101.562500
2733		95.703125
2734		103.515625
2735		95.703125
2736		103.515625
2737		97.656250
2738		103.515625
2739		99.609375
2740		103.515625
2741		99.609375
2742		105.468750
2743		99.609375
2744		105.468750
2745		99.609375
2746		105.468750
2747		99.609375
2748		107.421875
2749		99.609375
2750		107.421875
2751		101.562500
2752		107.421875
2753		99.609375
2754		107.421875
2755		101.562500
2756		105.468750
2757		101.562500
2758		105.468750
2759		101.562500
2760		107.421875
2761		99.609375
2762		107.421875
2763		99.609375
2764		107.421875
2765		99.609375
2766		107.421875
2767		99.609375
2768		107.421875
2769		99.609375
2770		105.468750
2771		101.562500
2772		103.515625
2773		101.562500
2774		103.515625
2775		97.656250
2776		103.515625
2777		97.656250
2778		103.515625
2779		95.703125
2780		103.515625
2781		95.703125
2782		103.515625
2783		95.703125
2784		101.562500
2785		93.750000
2786		101.562500
2787		93.750000
2788		99.609375
2789		93.750000
2790		97.656250
2791		91.796875
2792		97.656250
2793		89.843750
2794		97.656250
2795		89.843750
2796		95.703125
2797		87.890625
2798		95.703125
2799		85.937500
2800		93.750000
2801		83.984375
2802		93.750000
2803		83.984375
2804		91.796875
2805		83.984375
2806		87.890625
2807		83.984375
2808		85.937500
2809		80.078125
2810		85.937500
2811		78.125000
2812		85.937500
2813		76.171875
2814		83.984375
2815		74.218750
2816		82.031250
2817		72.265625
2818		80.078125
2819		70.312500
2820		78.125000
2821		70.312500
2822		76.171875
2823		68.359375
2824		72.265625
2825		64.453125
2826		70.312500
2827		62.500000
2828		70.312500
2829		60.546875
2830		68.359375
2831		58.593750
2832		64.453125
2833		56.640625
2834		64.453125
2835		54.687500
2836		60.546875
2837		50.781250
2838		58.593750
2839		50.781250
2840		54.687500
2841		46.875000
2842		52.734375
2843		42.968750
2844		50.781250
2845		42.968750
2846		48.828125
2847		39.062500
2848		46.875000
2849		37.109375
2850		44.921875
2851		35.156250
2852		41.015625
2853		31.250000
2854		39.062500
2855		31.250000
2856		35.156250
2857		27.343750
2858		31.250000
2859		23.437500
2860		29.296875
2861		19.531250
2862		27.343750
2863		17.578125
2864		25.390625
2865		15.625000
2866		21.484375
2867		11.718750
2868		19.531250
2869		7.812500
2870		17.578125
2871		7.812500
2872		13.671875
2873		5.859375
2874		9.765625
2875		1.953125
2876		5.859375
2877		-3.906250
2878		5.859375
2879		-5.859375
2880		1.953125
2881		-9.765625
2882		0.000000
2883		-11.718750
2884		-3.906250
2885		-13.671875
2886		-5.859375
2887		-15.625000
2888		-7.812500
2889		-17.578125
2890		-13.671875
2891		-21.484375
2892		-17.578125
2893		-25.390625
2894		-17.578125
2895		-27.343750
2896		-19.531250
2897		-31.250000
2898		-23.437500
2899		-33.203125
2900		-25.390625
2901		-37.109375
2902		-29.296875
2903		-39.062500
2904		-31.250000
2905		-41.015625
2906		-35.156250
2907		-42.968750
2908		-39.062500
2909		-48.828125
2910		-41.015625
2911		-50.781250
2912		-42.968750
2913		-52.734375
2914		-44.921875
2915		-56.640625
2916		-46.875000
2917		-58.593750
2918		-50.781250
2919		-60.546875
2920		-52.734375
2921		-62.500000
2922		-54.687500
2923		-64.453125
2924		-60.546875
2925		-66.406250
2926		-62.500000
2927		-70.312500
2928		-62.500000
2929		-72.265625
2930		-64.453125
2931		-76.171875
2932		-68.359375
2933		-78.125000
2934		-70.312500
2935		-80.078125
2936		-72.265625
2937		-82.031250
2938		-74.218750
2939		-82.031250
2940		-78.125000
2941		-83.984375
2942		-80.078125
2943		-87.890625
2944		-82.031250
2945		-89.843750
2946		-82.031250
2947		-91.796875
2948		-83.984375
2949		-93.750000
2950		-85.937500
2951		-95.703125
2952		-87.890625
2953		-95.703125
2954		-89.843750
2955		-97.656250
2956		-89.843750
2957		-97.656250
2958		-93.750000
2959		-99.609375
2960		-95.703125
2961		-101.562500
2962		-95.703125
2963		-103.515625
2964		-95.703125
2965		-103.515625
2966		-97.656250
2967		-105.468750
2968		-99.609375
2969		-105.468750
2970		-99.609375
2971		-107.421875
2972		-99.609375
2973		-105.468750
2974		-103.515625
2975		-107.421875
2976		-103.515625
2977		-109.375000
2978		-103.515625
2979		-109.375000
2980		-103.515625
2981		-111.328125
2982		-103.515625
2983		-111.328125
2984		-103.515625
2985		-111.328125
2986		-105.468750
2987		-111.328125
2988		-105.468750
2989		-111.328125
2990		-105.468750
2991		-109.375000
2992		-107.421875
2993		-111.328125
2994		-105.468750
2995		-111.328125
2996		-105.468750
2997		-111.328125
2998		-105.468750
2999		-111.328125
3000		-105.468750
3001		-111.328125
3002		-105.468750
3003		-111.328125
3004		-103.515625
3005		-111.328125
3006		-103.515625
3007		-107.421875
3008		-105.468750
3009		-107.421875
3010		-103.515625
3011		-109.375000
3012		-101.562500
3013		-107.421875
3014		-101.562500
3015		-107.421875
3016		-99.609375
3017		-105.468750
3018		-97.656250
3019		-103.515625
3020		-97.656250
3021		-103.515625
3022		-95.703125
3023		-101.562500
3024		-97.656250
3025		-99.609375
3026		-95.703125
3027		-97.656250
3028		-91.796875
3029		-97.656250
3030		-89.843750
3031		-95.703125
3032		-89.843750
3033		-95.703125
3034		-87.890625
3035		-93.750000
3036		-85.937500
3037		-91.796875
3038		-83.984375
3039		-89.843750
3040		-83.984375
3041		-85.937500
3042		-82.031250
3043		-83.984375
3044		-80.078125
3045		-83.984375
3046		-76.171875
3047		-82.031250
3048		-74.218750
3049		-80.078125
3050		-72.265625
3051		-76.171875
3052		-70.312500
3053		-76.171875
3054		-68.359375
3055		-72.265625
3056		-66.406250
3057		-68.359375
3058		-64.453125
3059		-66.406250
3060		-62.500000
3061		-64.453125
3062		-58.593750
3063		-62.500000
3064		-54.687500
3065		-60.546875
3066		-52.734375
3067		-58.593750
3068		-48.828125
3069		-54.687500
3070		-46.875000
3071		-52.734375
3072		-44.921875
3073		-50.781250
3074		-42.968750
3075		-44.921875
3076		-41.015625
3077		-42.968750
3078		-37.109375
3079		-41.015625
3080		-33.203125
3081		-39.062500
3082		-31.250000
3083		-37.109375
3084		-27.343750
3085		-33.203125
3086		-25.390625
3087		-31.250000
3088		-23.437500
3089		-27.343750
3090		-19.531250
3091		-23.437500
3092		-19.531250
3093		-19.531250
3094		-15.625000
3095		-17.578125
3096		-11.718750
3097		-15.625000
3098		-7.812500
3099		-13.671875
3100		-5.859375
3101		-9.765625
3102		-1.953125
3103		-7.812500
3104		0.000000
3105		-3.906250
3106		3.906250
3107		-1.953125
3108		3.906250
3109		3.906250
3110		7.812500
3111		5.859375
3112		11.718750
3113		7.812500
3114		13.671875
3115		9.765625
3116		17.578125
3117		13.671875
3118		19.531250
3119		15.625000
3120		23.437500
3121		17.578125
3122		25.390625
3123		21.484375
3124		27.343750
3125		25.390625
3126		29.296875
3127		27.343750
3128		33.203125
3129		29.296875
3130		37.109375
3131		33.203125
3132		39.062500
3133		33.203125
3134		41.015625
3135		37.109375
3136		44.921875
3137		37.109375
3138		46.875000
3139		41.015625
3140		48.828125
3141		46.875000
3142		48.828125
3143		48.828125
3144		52.734375
3145		50.781250
3146		56.640625
3147		52.734375
3148		58.593750
3149		52.734375
3150		60.546875
3151		56.640625
3152		62.500000
3153		56.640625
3154		64.453125
3155		60.546875
3156		66.406250
3157		62.500000
3158		68.359375
3159		66.406250
3160		70.312500
3161		68.359375
3162		72.265625
3163		68.359375
3164		76.171875
3165		70.312500
3166		78.125000
3167		72.265625
3168		80.078125
3169		74.218750
3170		80.078125
3171		76.171875
3172		82.031250
3173		76.171875
3174		83.984375
3175		80.078125
3176		83.984375
3177		82.031250
3178		85.937500
3179		82.031250
3180		89.843750
3181		83.984375
3182		89.843750
3183		83.984375
3184		91.796875
3185		85.937500
3186		93.750000
3187		87.890625
3188		93.750000
3189		87.890625
3190		95.703125
3191		89.843750
3192		95.703125
3193		93.750000
3194		95.703125
3195		93.750000
3196		97.656250
3197		93.750000
3198		99.609375
3199		93.750000
3200		99.609375
3201		95.703125
3202		101.562500
3203		95.703125
3204		101.562500
3205		95.703125
3206		103.515625
3207		97.656250
3208		103.515625
3209		99.609375
3210		101.562500
3211		101.562500
3212		103.515625
3213		99.609375
3214		105.468750
3215		99.609375
3216		105.468750
3217		99.609375
3218		105.468750
3219		99.609375
3220		105.468750
3221		99.609375
3222		107.421875
3223		99.609375
3224		107.421875
3225		103.515625
3226		105.468750
3227		103.515625
3228		105.468750
3229		99.609375
3230		107.421875
3231		99.609375
3232		107.421875
3233		101.562500
3234		107.421875
3235		101.562500
3236		107.421875
3237		99.609375
3238		107.421875
3239		99.609375
3240		107.421875
3241		99.609375
3242		105.468750
3243		101.562500
3244		103.515625
3245		99.609375
3246		103.515625
3247		97.656250
3248		105.468750
3249		97.656250
3250		103.515625
3251		97.656250
3252		103.515625
3253		95.703125
3254		103.515625
3255		95.703125
3256		101.562500
3257		93.750000
3258		101.562500
3259		95.703125
3260		97.656250
3261		93.750000
3262		97.656250
3263		91.796875
3264		97.656250
3265		89.843750
3266		97.656250
3267		89.843750
3268		97.656250
3269		87.890625
3270		95.703125
3271		85.937500
3272		93.750000
3273		85.937500
3274		91.796875
3275		83.984375
3276		89.843750
3277		83.984375
3278		87.890625
3279		80.078125
3280		85.937500
3281		80.078125
3282		85.937500
3283		78.125000
3284		83.984375
3285		76.171875
3286		83.984375
3287		74.218750
3288		80.078125
3289		72.265625
3290		80.078125
3291		70.312500
3292		78.125000
3293		70.312500
3294		74.218750
3295		68.359375
3296		72.265625
3297		64.453125
3298		72.265625
3299		62.500000
3300		70.312500
3301		58.593750
3302		68.359375
3303		56.640625
3304		64.453125
3305		54.687500
3306		62.500000
3307		52.734375
3308		60.546875
3309		52.734375
3310		56.640625
3311		50.781250
3312		54.687500
3313		44.921875
3314		52.734375
3315		42.968750
3316		50.781250
3317		41.015625
3318		48.828125
3319		37.109375
3320		46.875000
3321		37.109375
3322		42.968750
3323		33.203125
3324		41.015625
3325		31.250000
3326		37.109375
3327		29.296875
3328		35.156250
3329		27.343750
3330		31.250000
3331		23.437500
3332		31.250000
3333		21.484375
3334		27.343750
3335		17.578125
3336		25.390625
3337		13.671875
3338		23.437500
3339		11.718750
3340		19.531250
3341		7.812500
3342		15.625000
3343		7.812500
3344		11.718750
3345		3.906250
3346		9.765625
3347		0.000000
3348		7.812500
3349		-3.906250
3350		3.906250
3351		-3.906250
3352		1.953125
3353		-7.812500
3354		0.000000
3355		-11.718750
3356		-3.906250
3357		-15.625000
3358		-5.859375
3359		-15.625000
3360		-9.765625
3361		-17.578125
3362		-13.671875
3363		-23.437500
3364		-17.578125
3365		-25.390625
3366		-17.578125
3367		-29.296875
3368		-19.531250
3369		-31.250000
3370		-23.437500
3371		-33.203125
3372		-25.390625
3373		-37.109375
3374		-29.296875
3375		-39.062500
3376		-31.250000
3377		-41.015625
3378		-37.109375
3379		-42.968750
3380		-39.062500
3381		-46.875000
3382		-41.015625
3383		-50.781250
3384		-42.968750
3385		-54.687500
3386		-44.921875
3387		-56.640625
3388		-48.828125
3389		-58.593750
3390		-50.781250
3391		-60.546875
3392		-54.687500
3393		-62.500000
3394		-56.640625
3395		-64.453125
3396		-60.546875
3397		-68.359375
3398		-62.500000
3399		-70.312500
3400		-62.500000
3401		-74.218750
3402		-66.406250
3403		-74.218750
3404		-68.359375
3405		-78.125000
3406		-70.312500
3407		-80.078125
3408		-72.265625
3409		-80.078125
3410		-74.218750
3411		-82.031250
3412		-78.125000
3413		-83.984375
3414		-80.078125
3415		-87.890625
3416		-80.078125
3417		-89.843750
3418		-82.031250
3419		-91.796875
3420		-83.984375
3421		-93.750000
3422		-85.937500
3423		-95.703125
3424		-87.890625
3425		-95.703125
3426		-89.843750
3427		-95.703125
3428		-93.750000
3429		-97.656250
3430		-93.750000
3431		-101.562500
3432		-93.750000
3433		-101.562500
3434		-95.703125
3435		-103.515625
3436		-97.656250
3437		-103.515625
3438		-97.656250
3439		-105.468750
3440		-99.609375
3441		-107.421875
3442		-99.609375
3443		-105.468750
3444		-101.562500
3445		-105.468750
3446		-103.515625
3447		-109.375000
3448		-103.515625
3449		-109.375000
3450		-101.562500
3451		-111.328125
3452		-103.515625
3453		-111.328125
3454		-103.515625
3455		-111.328125
3456		-105.468750
3457		-111.328125
3458		-105.468750
3459		-111.328125
3460		-105.468750
3461		-109.375000
3462		-107.421875
3463		-109.375000
3464		-107.421875
3465		-111.328125
3466		-105.468750
3467		-111.328125
3468		-105.468750
3469		-111.328125
3470		-105.468750
3471		-111.328125
3472		-105.468750
3473		-111.328125
3474		-105.468750
3475		-111.328125
3476		-103.515625
3477		-109.375000
3478		-105.468750
3479		-107.421875
3480		-105.468750
3481		-107.421875
3482		-101.562500
3483		-107.421875
3484		-101.562500
3485		-107.421875
3486		-99.609375
3487		-107.421875
3488		-99.609375
3489		-105.468750
3490		-97.656250
3491		-105.468750
3492		-97.656250
3493		-103.515625
3494		-95.703125
3495		-99.609375
3496		-97.656250
3497		-97.656250
3498		-95.703125
3499		-99.609375
3500		-91.796875
3501		-97.656250
3502		-89.843750
3503		-95.703125
3504		-87.890625
3505		-93.750000
3506		-87.890625
3507		-91.796875
3508		-85.937500
3509		-91.796875
3510		-83.984375
3511		-87.890625
3512		-83.984375
3513		-85.937500
3514		-82.031250
3515		-85.937500
3516		-78.125000
3517		-83.984375
3518		-76.171875
3519		-82.031250
3520		-74.218750
3521		-80.078125
3522		-70.312500
3523		-76.171875
3524		-70.312500
3525		-74.218750
3526		-66.406250
3527		-72.265625
3528		-66.406250
3529		-68.359375
3530		-64.453125
3531		-64.453125
3532		-60.546875
3533		-64.453125
3534		-58.593750
3535		-62.500000
3536		-54.687500
3537		-60.546875
3538		-52.734375
3539		-56.640625
3540		-48.828125
3541		-54.687500
3542		-46.875000
3543		-52.734375
3544		-44.921875
3545		-46.875000
3546		-42.968750
3547		-44.921875
3548		-41.015625
3549		-42.968750
3550		-35.156250
3551		-41.015625
3552		-33.203125
3553		-37.109375
3554		-31.250000
3555		-35.156250
3556		-27.343750
3557		-33.203125
3558		-25.390625
3559		-29.296875
3560		-21.484375
3561		-27.343750
3562		-21.484375
3563		-21.484375
3564		-17.578125
3565		-19.531250
3566		-13.671875
3567		-19.531250
3568		-9.765625
3569		-15.625000
3570		-7.812500
3571		-11.718750
3572		-3.906250
3573		-9.765625
3574		-1.953125
3575		-7.812500
3576		0.000000
3577		-3.906250
3578		1.953125
3579		0.000000
3580		5.859375
3581		3.906250
3582		7.812500
3583		3.906250
3584		11.718750
3585		5.859375
3586		15.625000
3587		9.765625
3588		17.578125
3589		13.671875
3590		21.484375
3591		15.625000
3592		23.437500
3593		17.578125
3594		25.390625
3595		23.437500
3596		27.343750
3597		25.390625
3598		29.296875
3599		27.343750
3600		33.203125
3601		29.296875
3602		37.109375
3603		31.250000
3604		39.062500
3605		35.156250
3606		42.968750
3607		37.109375
3608		44.921875
3609		41.015625
3610		46.875000
3611		41.015625
3612		48.828125
3613		46.875000
3614		50.781250
3615		48.828125
3616		54.687500
3617		48.828125
3618		56.640625
3619		50.781250
3620		58.593750
3621		52.734375
3622		62.500000
3623		54.687500
3624		62.500000
3625		58.593750
3626		66.406250
3627		60.546875
3628		66.406250
3629		64.453125
3630		68.359375
3631		66.406250
3632		70.312500
3633		66.406250
3634		74.218750
3635		68.359375
3636		74.218750
3637		70.312500
3638		76.171875
3639		72.265625
3640		78.125000
3641		74.218750
3642		82.031250
3643		76.171875
3644		83.984375
3645		78.125000
3646		82.031250
3647		80.078125
3648		83.984375
3649		82.031250
3650		87.890625
3651		82.031250
3652		87.890625
3653		83.984375
3654		89.843750
3655		83.984375
3656		91.796875
3657		85.937500
3658		93.750000
3659		87.890625
3660		95.703125
3661		87.890625
3662		95.703125
3663		91.796875
3664		93.750000
3665		91.796875
3666		97.656250
3667		91.796875
3668		99.609375
3669		93.750000
3670		99.609375
3671		93.750000
3672		101.562500
3673		95.703125
3674		101.562500
3675		93.750000
3676		103.515625
3677		95.703125
3678		103.515625
3679		99.609375
3680		101.562500
3681		99.609375
3682		103.515625
3683		99.609375
3684		105.468750
3685		99.609375
3686		105.468750
3687		99.609375
3688		105.468750
3689		99.609375
3690		105.468750
3691		99.609375
3692		107.421875
3693		99.609375
3694		107.421875
3695		99.609375
3696		107.421875
3697		103.515625
3698		105.468750
3699		101.562500
3700		105.468750
3701		101.562500
3702		107.421875
3703		101.562500
3704		107.421875
3705		99.609375
3706		107.421875
3707		99.609375
3708		107.421875
3709		99.609375
3710		107.421875
3711		99.609375
3712		107.421875
3713		101.562500
3714		103.515625
3715		101.562500
3716		103.515625
3717		99.609375
3718		105.468750
3719		97.656250
3720		105.468750
3721		97.656250
3722		103.515625
3723		95.703125
3724		103.515625
3725		95.703125
3726		101.562500
3727		93.750000
3728		101.562500
3729		95.703125
3730		101.562500
3731		95.703125
3732		97.656250
3733		91.796875
3734		97.656250
3735		89.843750
3736		97.656250
3737		89.843750
3738		95.703125
3739		87.890625
3740		95.703125
3741		85.937500
3742		93.750000
3743		85.937500
3744		91.796875
3745		85.937500
3746		91.796875
3747		85.937500
3748		87.890625
3749		82.031250
3750		85.937500
3751		80.078125
3752		87.890625
3753		78.125000
3754		85.937500
3755		78.125000
3756		83.984375
3757		74.218750
3758		82.031250
3759		74.218750
3760		80.078125
3761		70.312500
3762		78.125000
3763		70.312500
3764		74.218750
3765		68.359375
3766		72.265625
3767		64.453125
3768		72.265625
3769		62.500000
3770		70.312500
3771		60.546875
3772		68.359375
3773		58.593750
3774		66.406250
3775		56.640625
3776		64.453125
3777		54.687500
3778		62.500000
3779		52.734375
3780		60.546875
3781		50.781250
3782		54.687500
3783		48.828125
3784		52.734375
3785		44.921875
3786		52.734375
3787		41.015625
3788		50.781250
3789		41.015625
3790		46.875000
3791		37.109375
3792		44.921875
3793		35.156250
3794		42.968750
3795		33.203125
3796		39.062500
3797		31.250000
3798		35.156250
3799		29.296875
3800		33.203125
3801		25.390625
3802		31.250000
3803		21.484375
3804		29.296875
3805		17.578125
3806		27.343750
3807		15.625000
3808		23.437500
3809		11.718750
3810		21.484375
3811		9.765625
3812		17.578125
3813		7.812500
3814		15.625000
3815		5.859375
3816		9.765625
3817		0.000000
3818		7.812500
3819		-1.953125
3820		5.859375
3821		-3.906250
3822		3.906250
3823		-7.812500
3824		0.000000
3825		-9.765625
3826		-1.953125
3827		-13.671875
3828		-5.859375
3829		-13.671875
3830		-7.812500
3831		-17.578125
3832		-13.671875
3833		-19.531250
3834		-15.625000
3835		-23.437500
3836		-17.578125
3837		-27.343750
3838		-19.531250
3839		-31.250000
3840		-23.437500
3841		-33.203125
3842		-25.390625
3843		-35.156250
3844		-27.343750
3845		-39.062500
3846		-31.250000
3847		-39.062500
3848		-35.156250
3849		-42.968750
3850		-39.062500
3851		-46.875000
3852		-41.015625
3853		-50.781250
3854		-41.015625
3855		-52.734375
3856		-44.921875
3857		-56.640625
3858		-46.875000
3859		-56.640625
3860		-50.781250
3861		-60.546875
3862		-52.734375
3863		-60.546875
3864		-56.640625
3865		-62.500000
3866		-58.593750
3867		-68.359375
3868		-62.500000
3869		-70.312500
3870		-62.500000
3871		-72.265625
3872		-64.453125
3873		-74.218750
3874		-68.359375
3875		-78.125000
3876		-70.312500
3877		-80.078125
3878		-72.265625
3879		-80.078125
3880		-74.218750
3881		-82.031250
3882		-78.125000
3883		-83.984375
3884		-80.078125
3885		-87.890625
3886		-80.078125
3887		-89.843750
3888		-82.031250
3889		-91.796875
3890		-83.984375
3891		-93.750000
3892		-85.937500
3893		-93.750000
3894		-87.890625
3895		-95.703125
3896		-89.843750
3897		-97.656250
3898		-89.843750
3899		-97.656250
3900		-93.750000
3901		-99.609375
3902		-93.750000
3903		-103.515625
3904		-95.703125
3905		-103.515625
3906		-95.703125
3907		-105.468750
3908		-97.656250
3909		-105.468750
3910		-99.609375
3911		-107.421875
3912		-99.609375
3913		-107.421875
3914		-101.562500
3915		-105.468750
3916		-103.515625
3917		-107.421875
3918		-103.515625
3919		-109.375000
3920		-103.515625
3921		-111.328125
3922		-103.515625
3923		-111.328125
3924		-105.468750
3925		-111.328125
3926		-105.468750
3927		-113.281250
3928		-105.468750
3929		-113.281250
3930		-105.468750
3931		-109.375000
3932		-107.421875
3933		-111.328125
3934		-107.421875
3935		-113.281250
3936		-105.468750
3937		-113.281250
3938		-105.468750
3939		-113.281250
3940		-105.468750
3941		-111.328125
3942		-105.468750
3943		-113.281250
3944		-105.468750
3945		-111.328125
3946		-105.468750
3947		-111.328125
3948		-105.468750
3949		-107.421875
3950		-105.468750
3951		-107.421875
3952		-105.468750
3953		-109.375000
3954		-103.515625
3955		-107.421875
3956		-103.515625
3957		-107.421875
3958		-101.562500
3959		-105.468750
3960		-101.562500
3961		-105.468750
3962		-99.609375
3963		-103.515625
3964		-97.656250
3965		-101.562500
3966		-97.656250
3967		-99.609375
3968		-97.656250
3969		-99.609375
3970		-93.750000
3971		-99.609375
3972		-91.796875
3973		-97.656250
3974		-91.796875
3975		-95.703125
3976		-89.843750
3977		-93.750000
3978		-87.890625
3979		-93.750000
3980		-85.937500
3981		-91.796875
3982		-85.937500
3983		-87.890625
3984		-83.984375
3985		-85.937500
3986		-80.078125
3987		-83.984375
3988		-78.125000
3989		-83.984375
3990		-76.171875
3991		-80.078125
3992		-74.218750
3993		-78.125000
3994		-72.265625
3995		-76.171875
3996		-68.359375
3997		-74.218750
3998		-66.406250
3999		-70.312500
4000		-66.406250
4001		-68.359375
4002		-64.453125
4003		-66.406250
4004		-60.546875
4005		-64.453125
4006		-56.640625
4007		-62.500000
4008		-54.687500
4009		-60.546875
4010		-52.734375
4011		-58.593750
4012		-48.828125
4013		-54.687500
4014		-46.875000
4015		-50.781250
4016		-44.921875
4017		-46.875000
4018		-42.968750
4019		-44.921875
4020		-39.062500
4021		-42.968750
4022		-35.156250
4023		-41.015625
4024		-33.203125
4025		-37.109375
4026		-31.250000
4027		-35.156250
4028		-27.343750
4029		-31.250000
4030		-25.390625
4031		-29.296875
4032		-23.437500
4033		-25.390625
4034		-19.531250
4035		-21.484375
4036		-15.625000
4037		-21.484375
4038		-13.671875
4039		-17.578125
4040		-9.765625
4041		-15.625000
4042		-7.812500
4043		-11.718750
4044		-3.906250
4045		-9.765625
4046		-1.953125
4047		-5.859375
4048		1.953125
4049		-1.953125
4050		1.953125
4051		1.953125
4052		5.859375
4053		3.906250
4054		9.765625
4055		5.859375
4056		11.718750
4057		7.812500
4058		15.625000
4059		9.765625
4060		19.531250
4061		13.671875
4062		21.484375
4063		15.625000
4064		23.437500
4065		19.531250
4066		25.390625
4067		23.437500
4068		27.343750
4069		25.390625
4070		31.250000
4071		27.343750
4072		35.156250
4073		29.296875
4074		37.109375
4075		31.250000
4076		39.062500
4077		35.156250
4078		42.968750
4079		37.109375
4080		44.921875
4081		41.015625
4082		46.875000
4083		44.921875
4084		48.828125
4085		46.875000
4086		50.781250
4087		48.828125
4088		54.687500
4089		48.828125
4090		58.593750
4091		52.734375
4092		58.593750
4093		54.687500
4094		60.546875
4095		56.640625
4096		64.453125
4097		60.546875
4098		66.406250
4099		60.546875
4100		66.406250
4101		64.453125
4102		68.359375
4103		66.406250
4104		72.265625
4105		66.406250
4106		74.218750
4107		70.312500
4108		76.171875
4109		70.312500
4110		78.125000
4111		72.265625
4112		80.078125
4113		74.218750
4114		82.031250
4115		76.171875
4116		82.031250
4117		80.078125
4118		83.984375
4119		82.031250
4120		85.937500
4121		80.078125
4122		87.890625
4123		82.031250
4124		89.843750
4125		83.984375
4126		89.843750
4127		85.937500
4128		91.796875
4129		87.890625
4130		91.796875
4131		87.890625
4132		93.750000
4133		91.796875
4134		93.750000
4135		91.796875
4136		95.703125
4137		91.796875
4138		97.656250
4139		91.796875
4140		97.656250
4141		93.750000
4142		99.609375
4143		93.750000
4144		99.609375
4145		93.750000
4146		101.562500
4147		97.656250
4148		101.562500
4149		95.703125
4150		103.515625
4151		99.609375
4152		101.562500
4153		99.609375
4154		103.515625
4155		97.656250
4156		105.468750
4157		99.609375
4158		105.468750
4159		99.609375
4160		105.468750
4161		99.609375
4162		105.468750
4163		101.562500
4164		105.468750
4165		99.609375
4166		107.421875
4167		103.515625
4168		105.468750
4169		101.562500
4170		105.468750
4171		101.562500
4172		107.421875
4173		99.609375
4174		107.421875
4175		99.609375
4176		107.421875
4177		101.562500
4178		105.468750
4179		101.562500
4180		105.468750
4181		99.609375
4182		105.468750
4183		99.609375
4184		105.468750
4185		101.562500
4186		103.515625
4187		97.656250
4188		105.468750
4189		97.656250
4190		103.515625
4191		97.656250
4192		103.515625
4193		97.656250
4194		103.515625
4195		97.656250
4196		101.562500
4197		97.656250
4198		99.609375
4199		95.703125
4200		99.609375
4201		95.703125
4202		97.656250
4203		93.750000
4204		97.656250
4205		89.843750
4206		97.656250
4207		89.843750
4208		95.703125
4209		89.843750
4210		95.703125
4211		89.843750
4212		91.796875
4213		87.890625
4214		91.796875
4215		87.890625
4216		89.843750
4217		85.937500
4218		87.890625
4219		83.984375
4220		87.890625
4221		80.078125
4222		85.937500
4223		80.078125
4224		85.937500
4225		78.125000
4226		83.984375
4227		78.125000
4228		80.078125
4229		76.171875
4230		80.078125
4231		74.218750
4232		78.125000
4233		72.265625
4234		76.171875
4235		70.312500
4236		74.218750
4237		68.359375
4238		72.265625
4239		64.453125
4240		72.265625
4241		62.500000
4242		70.312500
4243		62.500000
4244		64.453125
4245		58.593750
4246		64.453125
4247		56.640625
4248		60.546875
4249		54.687500
4250		58.593750
4251		52.734375
4252		56.640625
4253		50.781250
4254		54.687500
4255		46.875000
4256		52.734375
4257		44.921875
4258		52.734375
4259		42.968750
4260		46.875000
4261		41.015625
4262		44.921875
4263		37.109375
4264		42.968750
4265		35.156250
4266		39.062500
4267		33.203125
4268		39.062500
4269		29.296875
4270		35.156250
4271		25.390625
4272		31.250000
4273		23.437500
4274		29.296875
4275		21.484375
4276		25.390625
4277		19.531250
4278		23.437500
4279		15.625000
4280		21.484375
4281		11.718750
4282		17.578125
4283		9.765625
4284		15.625000
4285		7.812500
4286		11.718750
4287		3.906250
4288		9.765625
4289		1.953125
4290		5.859375
4291		-1.953125
4292		3.906250
4293		-3.906250
4294		0.000000
4295		-7.812500
4296		-1.953125
4297		-9.765625
4298		-5.859375
4299		-13.671875
4300		-7.812500
4301		-15.625000
4302		-11.718750
4303		-17.578125
4304		-13.671875
4305		-21.484375
4306		-17.578125
4307		-25.390625
4308		-19.531250
4309		-27.343750
4310		-21.484375
4311		-29.296875
4312		-25.390625
4313		-33.203125
4314		-27.343750
4315		-35.156250
4316		-31.250000
4317		-39.062500
4318		-33.203125
4319		-41.015625
4320		-37.109375
4321		-44.921875
4322		-39.062500
4323		-46.875000
4324		-41.015625
4325		-50.781250
4326		-44.921875
4327		-52.734375
4328		-46.875000
4329		-54.687500
4330		-50.781250
4331		-58.593750
4332		-52.734375
4333		-60.546875
4334		-54.687500
4335		-62.500000
4336		-58.593750
4337		-64.453125
4338		-60.546875
4339		-68.359375
4340		-62.500000
4341		-70.312500
4342		-66.406250
4343		-72.265625
4344		-68.359375
4345		-74.218750
4346		-70.312500
4347		-76.171875
4348		-72.265625
4349		-78.125000
4350		-74.218750
4351		-80.078125
4352		-76.171875
4353		-82.031250
4354		-78.125000
4355		-85.937500
4356		-80.078125
4357		-87.890625
4358		-82.031250
4359		-87.890625
4360		-83.984375
4361		-89.843750
4362		-85.937500
4363		-91.796875
4364		-87.890625
4365		-93.750000
4366		-89.843750
4367		-95.703125
4368		-91.796875
4369		-95.703125
4370		-93.750000
4371		-97.656250
4372		-95.703125
4373		-99.609375
4374		-95.703125
4375		-101.562500
4376		-97.656250
4377		-101.562500
4378		-97.656250
4379		-103.515625
4380		-99.609375
4381		-105.468750
4382		-101.562500
4383		-107.421875
4384		-101.562500
4385		-105.468750
4386		-103.515625
4387		-107.421875
4388		-103.515625
4389		-107.421875
4390		-105.468750
4391		-109.375000
4392		-105.468750
4393		-109.375000
4394		-105.468750
4395		-111.328125
4396		-107.421875
4397		-109.375000
4398		-107.421875
4399		-111.328125
4400		-107.421875
4401		-111.328125
4402		-107.421875
4403		-111.328125
4404		-107.421875
4405		-111.328125
4406		-107.421875
4407		-111.328125
4408		-107.421875
4409		-111.328125
4410		-107.421875
4411		-111.328125
4412		-107.421875
4413		-111.328125
4414		-107.421875
4415		-111.328125
4416		-107.421875
4417		-109.375000
4418		-105.468750
4419		-109.375000
4420		-107.421875
4421		-109.375000
4422		-105.468750
4423		-109.375000
4424		-105.468750
4425		-107.421875
4426		-105.468750
4427		-107.421875
4428		-103.515625
4429		-105.468750
4430		-103.515625
4431		-105.468750
4432		-101.562500
4433		-103.515625
4434		-99.609375
4435		-103.515625
4436		-97.656250
4437		-101.562500
4438		-97.656250
4439		-99.609375
4440		-97.656250
4441		-99.609375
4442		-95.703125
4443		-97.656250
4444		-93.750000
4445		-95.703125
4446		-91.796875
4447		-93.750000
4448		-89.843750
4449		-93.750000
4450		-87.890625
4451		-91.796875
4452		-85.937500
4453		-87.890625
4454		-85.937500
4455		-87.890625
4456		-82.031250
4457		-85.937500
4458		-80.078125
4459		-83.984375
4460		-80.078125
4461		-82.031250
4462		-76.171875
4463		-78.125000
4464		-74.218750
4465		-76.171875
4466		-72.265625
4467		-74.218750
4468		-70.312500
4469		-72.265625
4470		-68.359375
4471		-70.312500
4472		-66.406250
4473		-68.359375
4474		-62.500000
4475		-64.453125
4476		-60.546875
4477		-62.500000
4478		-58.593750
4479		-60.546875
4480		-54.687500
4481		-56.640625
4482		-52.734375
4483		-54.687500
4484		-50.781250
4485		-52.734375
4486		-46.875000
4487		-48.828125
4488		-44.921875
4489		-46.875000
4490		-41.015625
4491		-44.921875
4492		-39.062500
4493		-41.015625
4494		-37.109375
4495		-39.062500
4496		-33.203125
4497		-35.156250
4498		-31.250000
4499		-33.203125
4500		-27.343750
4501		-29.296875
4502		-25.390625
4503		-27.343750
4504		-23.437500
4505		-23.437500
4506		-19.531250
4507		-21.484375
4508		-15.625000
4509		-17.578125
4510		-13.671875
4511		-15.625000
4512		-9.765625
4513		-11.718750
4514		-7.812500
4515		-9.765625
4516		-5.859375
4517		-7.812500
4518		-1.953125
4519		-3.906250
4520		0.000000
4521		-1.953125
4522		3.906250
4523		1.953125
4524		5.859375
4525		3.906250
4526		9.765625
4527		7.812500
4528		11.718750
4529		9.765625
4530		15.625000
4531		13.671875
4532		17.578125
4533		15.625000
4534		19.531250
4535		19.531250
4536		23.437500
4537		21.484375
4538		25.390625
4539		23.437500
4540		29.296875
4541		25.390625
4542		31.250000
4543		29.296875
4544		33.203125
4545		33.203125
4546		37.109375
4547		35.156250
4548		39.062500
4549		37.109375
4550		42.968750
4551		41.015625
4552		44.921875
4553		42.968750
4554		46.875000
4555		44.921875
4556		48.828125
4557		46.875000
4558		52.734375
4559		48.828125
4560		54.687500
4561		50.781250
4562		56.640625
4563		54.687500
4564		58.593750
4565		56.640625
4566		60.546875
4567		58.593750
4568		62.500000
4569		60.546875
4570		64.453125
4571		62.500000
4572		66.406250
4573		64.453125
4574		70.312500
4575		66.406250
4576		70.312500
4577		70.312500
4578		72.265625
4579		70.312500
4580		74.218750
4581		72.265625
4582		78.125000
4583		74.218750
4584		78.125000
4585		76.171875
4586		80.078125
4587		78.125000
4588		82.031250
4589		80.078125
4590		83.984375
4591		82.031250
4592		85.937500
4593		83.984375
4594		85.937500
4595		83.984375
4596		87.890625
4597		85.937500
4598		89.843750
4599		87.890625
4600		89.843750
4601		87.890625
4602		91.796875
4603		89.843750
4604		93.750000
4605		91.796875
4606		93.750000
4607		91.796875
4608		95.703125
4609		93.750000
4610		97.656250
4611		93.750000
4612		97.656250
4613		95.703125
4614		97.656250
4615		95.703125
4616		99.609375
4617		95.703125
4618		101.562500
4619		97.656250
4620		101.562500
4621		99.609375
4622		101.562500
4623		99.609375
4624		101.562500
4625		99.609375
4626		103.515625
4627		99.609375
4628		103.515625
4629		99.609375
4630		103.515625
4631		101.562500
4632		103.515625
4633		101.562500
4634		103.515625
4635		101.562500
4636		105.468750
4637		101.562500
4638		105.468750
4639		101.562500
4640		105.468750
4641		101.562500
4642		105.468750
4643		101.562500
4644		105.468750
4645		101.562500
4646		105.468750
4647		101.562500
4648		105.468750
4649		101.562500
4650		103.515625
4651		101.562500
4652		105.468750
4653		99.609375
4654		103.515625
4655		101.562500
4656		103.515625
4657		99.609375
4658		103.515625
4659		99.609375
4660		103.515625
4661		97.656250
4662		101.562500
4663		97.656250
4664		101.562500
4665		97.656250
4666		101.562500
4667		97.656250
4668		99.609375
4669		95.703125
4670		99.609375
4671		95.703125
4672		97.656250
4673		93.750000
4674		97.656250
4675		93.750000
4676		97.656250
4677		91.796875
4678		95.703125
4679		89.843750
4680		93.750000
4681		89.843750
4682		93.750000
4683		87.890625
4684		91.796875
4685		87.890625
4686		89.843750
4687		85.937500
4688		89.843750
4689		83.984375
4690		87.890625
4691		82.031250
4692		85.937500
4693		82.031250
4694		83.984375
4695		80.078125
4696		83.984375
4697		78.125000
4698		82.031250
4699		76.171875
4700		80.078125
4701		74.218750
4702		78.125000
4703		72.265625
4704		76.171875
4705		70.312500
4706		74.218750
4707		68.359375
4708		72.265625
4709		66.406250
4710		70.312500
4711		64.453125
4712		68.359375
4713		62.500000
4714		66.406250
4715		60.546875
4716		64.453125
4717		58.593750
4718		62.500000
4719		56.640625
4720		60.546875
4721		52.734375
4722		58.593750
4723		50.781250
4724		54.687500
4725		48.828125
4726		52.734375
4727		46.875000
4728		50.781250
4729		44.921875
4730		48.828125
4731		41.015625
4732		44.921875
4733		39.062500
4734		42.968750
4735		37.109375
4736		41.015625
4737		33.203125
4738		39.062500
4739		31.250000
4740		35.156250
4741		27.343750
4742		33.203125
4743		25.390625
4744		31.250000
4745		23.437500
4746		27.343750
4747		19.531250
4748		25.390625
4749		17.578125
4750		21.484375
4751		13.671875
4752		19.531250
4753		11.718750
4754		15.625000
4755		7.812500
4756		13.671875
4757		5.859375
4758		9.765625
4759		1.953125
4760		7.812500
4761		0.000000
4762		3.906250
4763		-3.906250
4764		3.906250
4765		-5.859375
4766		0.000000
4767		-7.812500
4768		-3.906250
4769		-11.718750
4770		-7.812500
4771		-13.671875
4772		-9.765625
4773		-17.578125
4774		-13.671875
4775		-21.484375
4776		-15.625000
4777		-23.437500
4778		-17.578125
4779		-25.390625
4780		-21.484375
4781		-29.296875
4782		-23.437500
4783		-31.250000
4784		-27.343750
4785		-35.156250
4786		-29.296875
4787		-37.109375
4788		-31.250000
4789		-39.062500
4790		-35.156250
4791		-42.968750
4792		-39.062500
4793		-44.921875
4794		-39.062500
4795		-48.828125
4796		-42.968750
4797		-50.781250
4798		-46.875000
4799		-52.734375
4800		-48.828125
4801		-56.640625
4802		-50.781250
4803		-58.593750
4804		-54.687500
4805		-60.546875
4806		-56.640625
4807		-62.500000
4808		-58.593750
4809		-66.406250
4810		-62.500000
4811		-68.359375
4812		-64.453125
4813		-70.312500
4814		-66.406250
4815		-74.218750
4816		-68.359375
4817		-74.218750
4818		-72.265625
4819		-78.125000
4820		-72.265625
4821		-80.078125
4822		-76.171875
4823		-82.031250
4824		-78.125000
4825		-83.984375
4826		-80.078125
4827		-85.937500
4828		-82.031250
4829		-87.890625
4830		-83.984375
4831		-89.843750
4832		-85.937500
4833		-91.796875
4834		-87.890625
4835		-93.750000
4836		-89.843750
4837		-95.703125
4838		-91.796875
4839		-95.703125
4840		-93.750000
4841		-97.656250
4842		-95.703125
4843		-99.609375
4844		-95.703125
4845		-101.562500
4846		-97.656250
4847		-101.562500
4848		-97.656250
4849		-103.515625
4850		-99.609375
4851		-105.468750
4852		-101.562500
4853		-105.468750
4854		-101.562500
4855		-107.421875
4856		-103.515625
4857		-107.421875
4858		-103.515625
4859		-109.375000
4860		-105.468750
4861		-109.375000
4862		-105.468750
4863		-109.375000
4864		-107.421875
4865		-109.375000
4866		-107.421875
4867		-111.328125
4868		-107.421875
4869		-111.328125
4870		-109.375000
4871		-113.281250
4872		-107.421875
4873		-111.328125
4874		-109.375000
4875		-111.328125
4876		-109.375000
4877		-111.328125
4878		-109.375000
4879		-113.281250
4880		-109.375000
4881		-111.328125
4882		-109.375000
4883		-111.328125
4884		-109.375000
4885		-111.328125
4886		-109.375000
4887		-111.328125
4888		-107.421875
4889		-111.328125
4890		-107.421875
4891		-109.375000
4892		-107.421875
4893		-111.328125
4894		-105.468750
4895		-109.375000
4896		-105.468750
4897		-107.421875
4898		-105.468750
4899		-107.421875
4900		-103.515625
4901		-105.468750
4902		-103.515625
4903		-105.468750
4904		-101.562500
4905		-103.515625
4906		-101.562500
4907		-103.515625
4908		-99.609375
4909		-101.562500
4910		-97.656250
4911		-101.562500
4912		-95.703125
4913		-99.609375
4914		-95.703125
4915		-97.656250
4916		-93.750000
4917		-95.703125
4918		-91.796875
4919		-95.703125
4920		-89.843750
4921		-93.750000
4922		-87.890625
4923		-91.796875
4924		-87.890625
4925		-89.843750
4926		-85.937500
4927		-87.890625
4928		-83.984375
4929		-85.937500
4930		-82.031250
4931		-83.984375
4932		-78.125000
4933		-82.031250
4934		-78.125000
4935		-80.078125
4936		-74.218750
4937		-76.171875
4938		-72.265625
4939		-76.171875
4940		-70.312500
4941		-72.265625
4942		-68.359375
4943		-70.312500
4944		-64.453125
4945		-68.359375
4946		-62.500000
4947		-64.453125
4948		-60.546875
4949		-62.500000
4950		-58.593750
4951		-60.546875
4952		-54.687500
4953		-56.640625
4954		-52.734375
4955		-54.687500
4956		-50.781250
4957		-52.734375
4958		-46.875000
4959		-48.828125
4960		-44.921875
4961		-46.875000
4962		-42.968750
4963		-44.921875
4964		-39.062500
4965		-41.015625
4966		-37.109375
4967		-39.062500
4968		-33.203125
4969		-35.156250
4970		-31.250000
4971		-33.203125
4972		-27.343750
4973		-29.296875
4974		-25.390625
4975		-27.343750
4976		-21.484375
4977		-23.437500
4978		-19.531250
4979		-21.484375
4980		-15.625000
4981		-17.578125
4982		-13.671875
4983		-15.625000
4984		-9.765625
4985		-11.718750
4986		-7.812500
4987		-9.765625
4988		-3.906250
4989		-5.859375
4990		-1.953125
4991		-3.906250
4992		0.000000
4993		0.000000
4994		3.906250
4995		1.953125
4996		5.859375
4997		3.906250
4998		9.765625
4999		7.812500
5000		11.718750
5001		9.765625
5002		15.625000
5003		13.671875
5004		17.578125
5005		15.625000
5006		21.484375
5007		19.531250
5008		23.437500
5009		21.484375
5010		25.390625
5011		25.390625
5012		29.296875
5013		27.343750
5014		31.250000
5015		29.296875
5016		35.156250
5017		33.203125
5018		37.109375
5019		35.156250
5020		39.062500
5021		37.109375
5022		41.015625
5023		41.015625
5024		44.921875
5025		42.968750
5026		46.875000
5027		44.921875
5028		48.828125
5029		46.875000
5030		50.781250
5031		48.828125
5032		54.687500
5033		52.734375
5034		56.640625
5035		54.687500
5036		58.593750
5037		56.640625
5038		60.546875
5039		58.593750
5040		62.500000
5041		60.546875
5042		64.453125
5043		62.500000
5044		66.406250
5045		64.453125
5046		68.359375
5047		66.406250
5048		70.312500
5049		70.312500
5050		72.265625
5051		72.265625
5052		74.218750
5053		72.265625
5054		76.171875
5055		74.218750
5056		78.125000
5057		74.218750
5058		80.078125
5059		78.125000
5060		82.031250
5061		80.078125
5062		83.984375
5063		80.078125
5064		85.937500
5065		82.031250
5066		85.937500
5067		83.984375
5068		87.890625
5069		85.937500
5070		89.843750
5071		85.937500
5072		91.796875
5073		87.890625
5074		91.796875
5075		89.843750
5076		93.750000
5077		91.796875
5078		95.703125
5079		91.796875
5080		95.703125
5081		91.796875
5082		95.703125
5083		93.750000
5084		97.656250
5085		95.703125
5086		97.656250
5087		95.703125
5088		99.609375
5089		97.656250
5090		99.609375
5091		97.656250
5092		99.609375
5093		97.656250
5094		101.562500
5095		97.656250
5096		101.562500
5097		99.609375
5098		103.515625
5099		99.609375
5100		103.515625
5101		99.609375
5102		103.515625
5103		99.609375
5104		103.515625
5105		101.562500
5106		103.515625
5107		101.562500
5108		105.468750
5109		101.562500
5110		103.515625
5111		101.562500
5112		105.468750
5113		101.562500
5114		105.468750
5115		101.562500
5116		105.468750
5117		101.562500
5118		105.468750
5119		101.562500
5120		103.515625
5121		101.562500
5122		103.515625
5123		99.609375
5124		103.515625
5125		101.562500
5126		103.515625
5127		99.609375
5128		103.515625
5129		99.609375
5130		103.515625
5131		99.609375
5132		101.562500
5133		99.609375
5134		101.562500
5135		97.656250
5136		101.562500
5137		97.656250
5138		101.562500
5139		95.703125
5140		99.609375
5141		95.703125
5142		99.609375
5143		95.703125
5144		97.656250
5145		93.750000
5146		97.656250
5147		91.796875
5148		95.703125
5149		91.796875
5150		95.703125
5151		89.843750
5152		93.750000
5153		89.843750
5154		93.750000
5155		87.890625
5156		91.796875
5157		85.937500
5158		89.843750
5159		85.937500
5160		87.890625
5161		83.984375
5162		87.890625
5163		82.031250
5164		85.937500
5165		80.078125
5166		83.984375
5167		80.078125
5168		83.984375
5169		76.171875
5170		80.078125
5171		74.218750
5172		80.078125
5173		72.265625
5174		78.125000
5175		72.265625
5176		76.171875
5177		70.312500
5178		74.218750
5179		68.359375
5180		72.265625
5181		66.406250
5182		70.312500
5183		64.453125
5184		68.359375
5185		62.500000
5186		66.406250
5187		60.546875
5188		62.500000
5189		56.640625
5190		60.546875
5191		54.687500
5192		58.593750
5193		52.734375
5194		56.640625
5195		48.828125
5196		54.687500
5197		48.828125
5198		52.734375
5199		44.921875
5200		48.828125
5201		42.968750
5202		46.875000
5203		39.062500
5204		44.921875
5205		37.109375
5206		42.968750
5207		35.156250
5208		41.015625
5209		33.203125
5210		37.109375
5211		29.296875
5212		35.156250
5213		27.343750
5214		33.203125
5215		25.390625
5216		29.296875
5217		21.484375
5218		27.343750
5219		19.531250
5220		23.437500
5221		15.625000
5222		21.484375
5223		13.671875
5224		17.578125
5225		9.765625
5226		15.625000
5227		7.812500
5228		11.718750
5229		3.906250
5230		9.765625
5231		1.953125
5232		5.859375
5233		-1.953125
5234		3.906250
5235		-3.906250
5236		0.000000
5237		-7.812500
5238		-1.953125
5239		-9.765625
5240		-5.859375
5241		-11.718750
5242		-7.812500
5243		-15.625000
5244		-11.718750
5245		-17.578125
5246		-13.671875
5247		-21.484375
5248		-15.625000
5249		-23.437500
5250		-19.531250
5251		-27.343750
5252		-23.437500
5253		-29.296875
5254		-25.390625
5255		-33.203125
5256		-27.343750
5257		-35.156250
5258		-31.250000
5259		-39.062500
5260		-33.203125
5261		-41.015625
5262		-37.109375
5263		-42.968750
5264		-39.062500
5265		-46.875000
5266		-41.015625
5267		-48.828125
5268		-44.921875
5269		-52.734375
5270		-46.875000
5271		-54.687500
5272		-50.781250
5273		-56.640625
5274		-52.734375
5275		-60.546875
5276		-54.687500
5277		-62.500000
5278		-58.593750
5279		-64.453125
5280		-60.546875
5281		-68.359375
5282		-62.500000
5283		-68.359375
5284		-66.406250
5285		-72.265625
5286		-66.406250
5287		-74.218750
5288		-70.312500
5289		-76.171875
5290		-72.265625
5291		-80.078125
5292		-74.218750
5293		-80.078125
5294		-78.125000
5295		-82.031250
5296		-80.078125
5297		-85.937500
5298		-80.078125
5299		-87.890625
5300		-82.031250
5301		-89.843750
5302		-83.984375
5303		-89.843750
5304		-85.937500
5305		-93.750000
5306		-87.890625
5307		-93.750000
5308		-89.843750
5309		-95.703125
5310		-91.796875
5311		-97.656250
5312		-93.750000
5313		-99.609375
5314		-95.703125
5315		-99.609375
5316		-97.656250
5317		-101.562500
5318		-97.656250
5319		-103.515625
5320		-99.609375
5321		-103.515625
5322		-99.609375
5323		-105.468750
5324		-101.562500
5325		-105.468750
5326		-101.562500
5327		-107.421875
5328		-103.515625
5329		-107.421875
5330		-105.468750
5331		-109.375000
5332		-105.468750
5333		-109.375000
5334		-105.468750
5335		-109.375000
5336		-107.421875
5337		-109.375000
5338		-107.421875
5339		-111.328125
5340		-107.421875
5341		-111.328125
5342		-107.421875
5343		-113.281250
5344		-107.421875
5345		-111.328125
5346		-109.375000
5347		-111.328125
5348		-109.375000
5349		-111.328125
5350		-109.375000
5351		-111.328125
5352		-109.375000
5353		-111.328125
5354		-109.375000
5355		-111.328125
5356		-107.421875
5357		-111.328125
5358		-107.421875
5359		-111.328125
5360		-107.421875
5361		-109.375000
5362		-107.421875
5363		-109.375000
5364		-105.468750
5365		-109.375000
5366		-105.468750
5367		-107.421875
5368		-105.468750
5369		-107.421875
5370		-103.515625
5371		-107.421875
5372		-103.515625
5373		-105.468750
5374		-101.562500
5375		-105.468750
5376		-101.562500
5377		-103.515625
5378		-99.609375
5379		-101.562500
5380		-99.609375
5381		-101.562500
5382		-97.656250
5383		-99.609375
5384		-95.703125
5385		-97.656250
5386		-93.750000
5387		-95.703125
5388		-93.750000
5389		-95.703125
5390		-91.796875
5391		-93.750000
5392		-89.843750
5393		-91.796875
5394		-87.890625
5395		-89.843750
5396		-85.937500
5397		-87.890625
5398		-82.031250
5399		-85.937500
5400		-82.031250
5401		-83.984375
5402		-80.078125
5403		-82.031250
5404		-78.125000
5405		-80.078125
5406		-76.171875
5407		-78.125000
5408		-74.218750
5409		-76.171875
5410		-70.312500
5411		-72.265625
5412		-68.359375
5413		-70.312500
5414		-66.406250
5415		-68.359375
5416		-64.453125
5417		-64.453125
5418		-60.546875
5419		-62.500000
5420		-58.593750
5421		-60.546875
5422		-56.640625
5423		-58.593750
5424		-52.734375
5425		-56.640625
5426		-50.781250
5427		-54.687500
5428		-48.828125
5429		-50.781250
5430		-44.921875
5431		-46.875000
5432		-42.968750
5433		-44.921875
5434		-39.062500
5435		-42.968750
5436		-37.109375
5437		-39.062500
5438		-35.156250
5439		-35.156250
5440		-31.250000
5441		-33.203125
5442		-29.296875
5443		-31.250000
5444		-25.390625
5445		-27.343750
5446		-23.437500
5447		-25.390625
5448		-19.531250
5449		-21.484375
5450		-17.578125
5451		-19.531250
5452		-13.671875
5453		-15.625000
5454		-11.718750
5455		-13.671875
5456		-7.812500
5457		-9.765625
5458		-5.859375
5459		-7.812500
5460		-1.953125
5461		-3.906250
5462		0.000000
5463		-1.953125
5464		1.953125
5465		0.000000
5466		5.859375
5467		3.906250
5468		7.812500
5469		5.859375
5470		11.718750
5471		9.765625
5472		13.671875
5473		11.718750
5474		17.578125
5475		15.625000
5476		19.531250
5477		17.578125
5478		21.484375
5479		21.484375
5480		25.390625
5481		23.437500
5482		29.296875
5483		25.390625
5484		31.250000
5485		29.296875
5486		33.203125
5487		31.250000
5488		37.109375
5489		33.203125
5490		39.062500
5491		37.109375
5492		41.015625
5493		39.062500
5494		42.968750
5495		41.015625
5496		44.921875
5497		44.921875
5498		48.828125
5499		46.875000
5500		50.781250
5501		48.828125
5502		54.687500
5503		50.781250
5504		54.687500
5505		54.687500
5506		58.593750
5507		56.640625
5508		60.546875
5509		56.640625
5510		62.500000
5511		58.593750
5512		64.453125
5513		62.500000
5514		66.406250
5515		64.453125
5516		68.359375
5517		66.406250
5518		70.312500
5519		68.359375
5520		72.265625
5521		70.312500
5522		76.171875
5523		72.265625
5524		76.171875
5525		74.218750
5526		78.125000
5527		76.171875
5528		80.078125
5529		78.125000
5530		82.031250
5531		80.078125
5532		83.984375
5533		80.078125
5534		83.984375
5535		82.031250
5536		85.937500
5537		83.984375
5538		87.890625
5539		85.937500
5540		89.843750
5541		85.937500
5542		89.843750
5543		87.890625
5544		91.796875
5545		89.843750
5546		91.796875
5547		91.796875
5548		93.750000
5549		91.796875
5550		95.703125
5551		93.750000
5552		95.703125
5553		93.750000
5554		97.656250
5555		93.750000
5556		99.609375
5557		95.703125
5558		99.609375
5559		95.703125
5560		99.609375
5561		97.656250
5562		101.562500
5563		97.656250
5564		101.562500
5565		97.656250
5566		101.562500
5567		99.609375
5568		103.515625
5569		99.609375
5570		103.515625
5571		99.609375
5572		103.515625
5573		99.609375
5574		105.468750
5575		99.609375
5576		105.468750
5577		101.562500
5578		105.468750
5579		101.562500
5580		103.515625
5581		101.562500
5582		105.468750
5583		101.562500
5584		105.468750
5585		101.562500
5586		105.468750
5587		101.562500
5588		105.468750
5589		101.562500
5590		105.468750
5591		101.562500
5592		105.468750
5593		101.562500
5594		105.468750
5595		101.562500
5596		105.468750
5597		101.562500
5598		103.515625
5599		99.609375
5600		103.515625
5601		99.609375
5602		103.515625
5603		99.609375
5604		103.515625
5605		97.656250
5606		103.515625
5607		97.656250
5608		101.562500
5609		97.656250
5610		101.562500
5611		95.703125
5612		101.562500
5613		95.703125
5614		99.609375
5615		93.750000
5616		97.656250
5617		93.750000
5618		97.656250
5619		91.796875
5620		97.656250
5621		91.796875
5622		95.703125
5623		89.843750
5624		95.703125
5625		87.890625
5626		93.750000
5627		87.890625
5628		91.796875
5629		87.890625
5630		89.843750
5631		85.937500
5632		87.890625
5633		83.984375
5634		87.890625
5635		82.031250
5636		85.937500
5637		80.078125
5638		83.984375
5639		80.078125
5640		83.984375
5641		78.125000
5642		82.031250
5643		76.171875
5644		80.078125
5645		74.218750
5646		78.125000
5647		72.265625
5648		76.171875
5649		70.312500
5650		74.218750
5651		68.359375
5652		72.265625
5653		66.406250
5654		70.312500
5655		64.453125
5656		68.359375
5657		62.500000
5658		66.406250
5659		60.546875
5660		64.453125
5661		56.640625
5662		60.546875
5663		54.687500
5664		58.593750
5665		52.734375
5666		56.640625
5667		50.781250
5668		54.687500
5669		48.828125
5670		52.734375
5671		44.921875
5672		50.781250
5673		42.968750
5674		46.875000
5675		41.015625
5676		44.921875
5677		37.109375
5678		41.015625
5679		35.156250
5680		39.062500
5681		33.203125
5682		37.109375
5683		29.296875
5684		35.156250
5685		27.343750
5686		31.250000
5687		25.390625
5688		29.296875
5689		21.484375
5690		25.390625
5691		19.531250
5692		23.437500
5693		15.625000
5694		19.531250
5695		13.671875
5696		17.578125
5697		9.765625
5698		13.671875
5699		7.812500
5700		11.718750
5701		5.859375
5702		9.765625
5703		1.953125
5704		5.859375
5705		-1.953125
5706		3.906250
5707		-3.906250
5708		0.000000
5709		-5.859375
5710		-1.953125
5711		-9.765625
5712		-5.859375
5713		-11.718750
5714		-7.812500
5715		-15.625000
5716		-11.718750
5717		-17.578125
5718		-13.671875
5719		-21.484375
5720		-17.578125
5721		-23.437500
5722		-19.531250
5723		-27.343750
5724		-23.437500
5725		-29.296875
5726		-25.390625
5727		-33.203125
5728		-27.343750
5729		-35.156250
5730		-31.250000
5731		-39.062500
5732		-33.203125
5733		-42.968750
5734		-37.109375
5735		-46.875000
5736		-37.109375
5737		-48.828125
5738		-39.062500
5739		-48.828125
5740		-41.015625
5741		-50.781250
5742		-46.875000
5743		-54.687500
5744		-50.781250
5745		-56.640625
5746		-52.734375
5747		-58.593750
5748		-54.687500
5749		-62.500000
5750		-58.593750
5751		-66.406250
5752		-56.640625
5753		-68.359375
5754		-58.593750
5755		-70.312500
5756		-62.500000
5757		-72.265625
5758		-68.359375
5759		-74.218750
5760		-70.312500
5761		-76.171875
5762		-72.265625
5763		-78.125000
5764		-74.218750
5765		-80.078125
5766		-76.171875
5767		-85.937500
5768		-76.171875
5769		-85.937500
5770		-78.125000
5771		-87.890625
5772		-80.078125
5773		-87.890625
5774		-83.984375
5775		-89.843750
5776		-85.937500
5777		-91.796875
5778		-87.890625
5779		-91.796875
5780		-89.843750
5781		-93.750000
5782		-91.796875
5783		-95.703125
5784		-93.750000
5785		-99.609375
5786		-91.796875
5787		-101.562500
5788		-91.796875
5789		-103.515625
5790		-93.750000
5791		-101.562500
5792		-97.656250
5793		-101.562500
5794		-99.609375
5795		-103.515625
5796		-101.562500
5797		-103.515625
5798		-101.562500
5799		-105.468750
5800		-103.515625
5801		-109.375000
5802		-99.609375
5803		-109.375000
5804		-101.562500
5805		-111.328125
5806		-101.562500
5807		-107.421875
5808		-105.468750
5809		-109.375000
5810		-105.468750
5811		-109.375000
5812		-107.421875
5813		-109.375000
5814		-107.421875
5815		-109.375000
5816		-107.421875
5817		-113.281250
5818		-103.515625
5819		-113.281250
5820		-103.515625
5821		-113.281250
5822		-103.515625
5823		-111.328125
5824		-105.468750
5825		-109.375000
5826		-107.421875
5827		-109.375000
5828		-107.421875
5829		-109.375000
5830		-107.421875
5831		-109.375000
5832		-105.468750
5833		-107.421875
5834		-105.468750
5835		-111.328125
5836		-101.562500
5837		-109.375000
5838		-101.562500
5839		-109.375000
5840		-99.609375
5841		-105.468750
5842		-103.515625
5843		-103.515625
5844		-101.562500
5845		-103.515625
5846		-99.609375
5847		-101.562500
5848		-99.609375
5849		-101.562500
5850		-97.656250
5851		-101.562500
5852		-93.750000
5853		-101.562500
5854		-91.796875
5855		-99.609375
5856		-89.843750
5857		-99.609375
5858		-91.796875
5859		-93.750000
5860		-91.796875
5861		-91.796875
5862		-89.843750
5863		-91.796875
5864		-87.890625
5865		-89.843750
5866		-83.984375
5867		-87.890625
5868		-83.984375
5869		-87.890625
5870		-78.125000
5871		-85.937500
5872		-76.171875
5873		-83.984375
5874		-74.218750
5875		-80.078125
5876		-76.171875
5877		-78.125000
5878		-74.218750
5879		-74.218750
5880		-70.312500
5881		-72.265625
5882		-68.359375
5883		-70.312500
5884		-66.406250
5885		-70.312500
5886		-60.546875
5887		-68.359375
5888		-56.640625
5889		-64.453125
5890		-56.640625
5891		-60.546875
5892		-56.640625
5893		-58.593750
5894		-54.687500
5895		-56.640625
5896		-50.781250
5897		-52.734375
5898		-48.828125
5899		-50.781250
5900		-46.875000
5901		-48.828125
5902		-41.015625
5903		-48.828125
5904		-37.109375
5905		-44.921875
5906		-35.156250
5907		-42.968750
5908		-33.203125
5909		-37.109375
5910		-31.250000
5911		-35.156250
5912		-29.296875
5913		-31.250000
5914		-27.343750
5915		-27.343750
5916		-23.437500
5917		-25.390625
5918		-21.484375
5919		-21.484375
5920		-17.578125
5921		-21.484375
5922		-13.671875
5923		-19.531250
5924		-11.718750
5925		-13.671875
5926		-9.765625
5927		-11.718750
5928		-5.859375
5929		-7.812500
5930		-3.906250
5931		-5.859375
5932		0.000000
5933		-1.953125
5934		1.953125
5935		0.000000
5936		3.906250
5937		1.953125
5938		9.765625
5939		3.906250
5940		11.718750
5941		9.765625
5942		13.671875
5943		11.718750
5944		15.625000
5945		15.625000
5946		19.531250
5947		17.578125
5948		21.484375
5949		19.531250
5950		25.390625
5951		23.437500
5952		29.296875
5953		25.390625
5954		29.296875
5955		27.343750
5956		33.203125
5957		31.250000
5958		35.156250
5959		33.203125
5960		37.109375
5961		37.109375
5962		41.015625
5963		39.062500
5964		42.968750
5965		41.015625
5966		44.921875
5967		44.921875
5968		48.828125
5969		46.875000
5970		50.781250
5971		48.828125
5972		52.734375
5973		50.781250
5974		54.687500
5975		54.687500
5976		58.593750
5977		56.640625
5978		60.546875
5979		58.593750
5980		62.500000
5981		60.546875
5982		64.453125
5983		62.500000
5984		66.406250
5985		64.453125
5986		68.359375
5987		66.406250
5988		70.312500
5989		68.359375
5990		72.265625
5991		70.312500
5992		74.218750
5993		72.265625
5994		76.171875
5995		74.218750
5996		78.125000
5997		76.171875
5998		80.078125
5999		78.125000
6000		82.031250
6001		80.078125
6002		83.984375
6003		80.078125
6004		83.984375
6005		83.984375
6006		85.937500
6007		83.984375
6008		87.890625
6009		85.937500
6010		89.843750
6011		87.890625
6012		89.843750
6013		89.843750
6014		91.796875
6015		89.843750
6016		93.750000
6017		91.796875
6018		93.750000
6019		91.796875
6020		95.703125
6021		91.796875
6022		97.656250
6023		95.703125
6024		97.656250
6025		95.703125
6026		99.609375
6027		95.703125
6028		99.609375
6029		97.656250
6030		99.609375
6031		97.656250
6032		101.562500
6033		99.609375
6034		101.562500
6035		99.609375
6036		103.515625
6037		99.609375
6038		103.515625
6039		101.562500
6040		103.515625
6041		101.562500
6042		103.515625
6043		101.562500
6044		105.468750
6045		101.562500
6046		105.468750
6047		103.515625
6048		105.468750
6049		103.515625
6050		105.468750
6051		103.515625
6052		105.468750
6053		103.515625
6054		107.421875
6055		103.515625
6056		107.421875
6057		103.515625
6058		105.468750
6059		103.515625
6060		107.421875
6061		103.515625
6062		105.468750
6063		103.515625
6064		105.468750
6065		103.515625
6066		105.468750
6067		103.515625
6068		105.468750
6069		101.562500
6070		105.468750
6071		101.562500
6072		105.468750
6073		101.562500
6074		103.515625
6075		101.562500
6076		103.515625
6077		99.609375
6078		103.515625
6079		99.609375
6080		103.515625
6081		99.609375
6082		101.562500
6083		97.656250
6084		99.609375
6085		97.656250
6086		99.609375
6087		93.750000
6088		99.609375
6089		95.703125
6090		97.656250
6091		93.750000
6092		97.656250
6093		91.796875
6094		95.703125
6095		91.796875
6096		95.703125
6097		89.843750
6098		93.750000
6099		89.843750
6100		91.796875
6101		87.890625
6102		89.843750
6103		83.984375
6104		89.843750
6105		83.984375
6106		87.890625
6107		82.031250
6108		85.937500
6109		80.078125
6110		83.984375
6111		78.125000
6112		83.984375
6113		78.125000
6114		80.078125
6115		76.171875
6116		80.078125
6117		74.218750
6118		78.125000
6119		72.265625
6120		76.171875
6121		70.312500
6122		74.218750
6123		68.359375
6124		72.265625
6125		66.406250
6126		70.312500
6127		64.453125
6128		68.359375
6129		62.500000
6130		66.406250
6131		60.546875
6132		64.453125
6133		56.640625
6134		60.546875
6135		54.687500
6136		58.593750
6137		52.734375
6138		56.640625
6139		50.781250
6140		54.687500
6141		46.875000
6142		50.781250
6143		44.921875
6144		48.828125
6145		42.968750
6146		46.875000
6147		41.015625
6148		44.921875
6149		37.109375
6150		41.015625
6151		35.156250
6152		39.062500
6153		31.250000
6154		37.109375
6155		29.296875
6156		35.156250
6157		27.343750
6158		31.250000
6159		23.437500
6160		29.296875
6161		21.484375
6162		25.390625
6163		19.531250
6164		23.437500
6165		15.625000
6166		19.531250
6167		13.671875
6168		17.578125
6169		9.765625
6170		13.671875
6171		7.812500
6172		13.671875
6173		3.906250
6174		9.765625
6175		1.953125
6176		5.859375
6177		-1.953125
6178		3.906250
6179		-3.906250
6180		1.953125
6181		-7.812500
6182		-1.953125
6183		-9.765625
6184		-5.859375
6185		-13.671875
6186		-7.812500
6187		-15.625000
6188		-11.718750
6189		-19.531250
6190		-13.671875
6191		-21.484375
6192		-17.578125
6193		-25.390625
6194		-19.531250
6195		-27.343750
6196		-21.484375
6197		-29.296875
6198		-25.390625
6199		-33.203125
6200		-29.296875
6201		-35.156250
6202		-31.250000
6203		-39.062500
6204		-35.156250
6205		-41.015625
6206		-37.109375
6207		-42.968750
6208		-39.062500
6209		-46.875000
6210		-42.968750
6211		-50.781250
6212		-44.921875
6213		-52.734375
6214		-48.828125
6215		-54.687500
6216		-50.781250
6217		-56.640625
6218		-52.734375
6219		-58.593750
6220		-56.640625
6221		-62.500000
6222		-58.593750
6223		-64.453125
6224		-60.546875
6225		-66.406250
6226		-62.500000
6227		-70.312500
6228		-66.406250
6229		-72.265625
6230		-68.359375
6231		-74.218750
6232		-70.312500
6233		-76.171875
6234		-72.265625
6235		-78.125000
6236		-74.218750
6237		-80.078125
6238		-76.171875
6239		-82.031250
6240		-78.125000
6241		-83.984375
6242		-82.031250
6243		-85.937500
6244		-82.031250
6245		-87.890625
6246		-83.984375
6247		-89.843750
6248		-85.937500
6249		-91.796875
6250		-87.890625
6251		-93.750000
6252		-89.843750
6253		-95.703125
6254		-91.796875
6255		-95.703125
6256		-93.750000
6257		-97.656250
6258		-93.750000
6259		-99.609375
6260		-95.703125
6261		-99.609375
6262		-97.656250
6263		-101.562500
6264		-99.609375
6265		-103.515625
6266		-99.609375
6267		-103.515625
6268		-101.562500
6269		-105.468750
6270		-101.562500
6271		-105.468750
6272		-103.515625
6273		-105.468750
6274		-103.515625
6275		-107.421875
6276		-105.468750
6277		-107.421875
6278		-105.468750
6279		-109.375000
6280		-105.468750
6281		-109.375000
6282		-107.421875
6283		-109.375000
6284		-107.421875
6285		-109.375000
6286		-107.421875
6287		-109.375000
6288		-107.421875
6289		-109.375000
6290		-107.421875
6291		-109.375000
6292		-107.421875
6293		-109.375000
6294		-107.421875
6295		-109.375000
6296		-107.421875
6297		-109.375000
6298		-107.421875
6299		-109.375000
6300		-107.421875
6301		-109.375000
6302		-107.421875
6303		-109.375000
6304		-105.468750
6305		-107.421875
6306		-105.468750
6307		-107.421875
6308		-105.468750
6309		-107.421875
6310		-103.515625
6311		-105.468750
6312		-103.515625
6313		-105.468750
6314		-101.562500
6315		-103.515625
6316		-101.562500
6317		-103.515625
6318		-99.609375
6319		-101.562500
6320		-99.609375
6321		-101.562500
6322		-97.656250
6323		-99.609375
6324		-95.703125
6325		-97.656250
6326		-95.703125
6327		-97.656250
6328		-93.750000
6329		-95.703125
6330		-91.796875
6331		-93.750000
6332		-89.843750
6333		-91.796875
6334		-87.890625
6335		-89.843750
6336		-87.890625
6337		-87.890625
6338		-85.937500
6339		-87.890625
6340		-83.984375
6341		-85.937500
6342		-82.031250
6343		-83.984375
6344		-80.078125
6345		-82.031250
6346		-78.125000
6347		-78.125000
6348		-76.171875
6349		-76.171875
6350		-72.265625
6351		-74.218750
6352		-70.312500
6353		-72.265625
6354		-68.359375
6355		-70.312500
6356		-64.453125
6357		-68.359375
6358		-62.500000
6359		-64.453125
6360		-60.546875
6361		-62.500000
6362		-58.593750
6363		-60.546875
6364		-56.640625
6365		-58.593750
6366		-52.734375
6367		-54.687500
6368		-50.781250
6369		-52.734375
6370		-48.828125
6371		-50.781250
6372		-44.921875
6373		-48.828125
6374		-41.015625
6375		-44.921875
6376		-41.015625
6377		-42.968750
6378		-37.109375
6379		-39.062500
6380		-35.156250
6381		-35.156250
6382		-31.250000
6383		-33.203125
6384		-29.296875
6385		-31.250000
6386		-25.390625
6387		-27.343750
6388		-23.437500
6389		-25.390625
6390		-19.531250
6391		-23.437500
6392		-17.578125
6393		-19.531250
6394		-13.671875
6395		-15.625000
6396		-11.718750
6397		-13.671875
6398		-9.765625
6399		-9.765625
6400		-5.859375
6401		-7.812500
6402		-1.953125
6403		-3.906250
6404		0.000000
6405		-1.953125
6406		3.906250
6407		0.000000
6408		7.812500
6409		1.953125
6410		7.812500
6411		5.859375
6412		11.718750
6413		9.765625
6414		13.671875
6415		11.718750
6416		17.578125
6417		15.625000
6418		19.531250
6419		17.578125
6420		21.484375
6421		21.484375
6422		25.390625
6423		23.437500
6424		29.296875
6425		25.390625
6426		31.250000
6427		29.296875
6428		33.203125
6429		31.250000
6430		35.156250
6431		35.156250
6432		39.062500
6433		37.109375
6434		41.015625
6435		39.062500
6436		42.968750
6437		41.015625
6438		46.875000
6439		44.921875
6440		50.781250
6441		46.875000
6442		52.734375
6443		48.828125
6444		52.734375
6445		52.734375
6446		56.640625
6447		54.687500
6448		58.593750
6449		56.640625
6450		60.546875
6451		58.593750
6452		62.500000
6453		60.546875
6454		64.453125
6455		62.500000
6456		66.406250
6457		62.500000
6458		70.312500
6459		66.406250
6460		72.265625
6461		68.359375
6462		72.265625
6463		70.312500
6464		74.218750
6465		72.265625
6466		76.171875
6467		74.218750
6468		78.125000
6469		76.171875
6470		80.078125
6471		78.125000
6472		82.031250
6473		80.078125
6474		83.984375
6475		80.078125
6476		85.937500
6477		83.984375
6478		85.937500
6479		85.937500
6480		87.890625
6481		85.937500
6482		89.843750
6483		87.890625
6484		89.843750
6485		89.843750
6486		91.796875
6487		89.843750
6488		93.750000
6489		91.796875
6490		95.703125
6491		91.796875
6492		97.656250
6493		91.796875
6494		97.656250
6495		93.750000
6496		97.656250
6497		95.703125
6498		97.656250
6499		97.656250
6500		99.609375
6501		97.656250
6502		99.609375
6503		97.656250
6504		101.562500
6505		99.609375
6506		101.562500
6507		97.656250
6508		103.515625
6509		99.609375
6510		105.468750
6511		101.562500
6512		103.515625
6513		101.562500
6514		103.515625
6515		101.562500
6516		105.468750
6517		101.562500
6518		105.468750
6519		103.515625
6520		105.468750
6521		103.515625
6522		105.468750
6523		101.562500
6524		107.421875
6525		101.562500
6526		107.421875
6527		103.515625
6528		105.468750
6529		103.515625
6530		105.468750
6531		103.515625
6532		105.468750
6533		103.515625
6534		105.468750
6535		103.515625
6536		105.468750
6537		103.515625
6538		105.468750
6539		101.562500
6540		105.468750
6541		101.562500
6542		105.468750
6543		101.562500
6544		103.515625
6545		101.562500
6546		103.515625
6547		99.609375
6548		103.515625
6549		99.609375
6550		103.515625
6551		99.609375
6552		101.562500
6553		97.656250
6554		101.562500
6555		97.656250
6556		99.609375
6557		95.703125
6558		101.562500
6559		95.703125
6560		97.656250
6561		95.703125
6562		97.656250
6563		93.750000
6564		97.656250
6565		91.796875
6566		95.703125
6567		91.796875
6568		93.750000
6569		89.843750
6570		93.750000
6571		87.890625
6572		91.796875
6573		87.890625
6574		89.843750
6575		85.937500
6576		89.843750
6577		83.984375
6578		87.890625
6579		82.031250
6580		85.937500
6581		80.078125
6582		83.984375
6583		80.078125
6584		82.031250
6585		78.125000
6586		82.031250
6587		76.171875
6588		80.078125
6589		74.218750
6590		78.125000
6591		72.265625
6592		76.171875
6593		70.312500
6594		74.218750
6595		68.359375
6596		72.265625
6597		64.453125
6598		70.312500
6599		64.453125
6600		68.359375
6601		62.500000
6602		66.406250
6603		60.546875
6604		62.500000
6605		56.640625
6606		60.546875
6607		54.687500
6608		58.593750
6609		52.734375
6610		56.640625
6611		50.781250
6612		54.687500
6613		46.875000
6614		52.734375
6615		44.921875
6616		48.828125
6617		42.968750
6618		46.875000
6619		41.015625
6620		44.921875
6621		37.109375
6622		41.015625
6623		35.156250
6624		39.062500
6625		33.203125
6626		37.109375
6627		29.296875
6628		33.203125
6629		27.343750
6630		31.250000
6631		23.437500
6632		29.296875
6633		21.484375
6634		25.390625
6635		19.531250
6636		23.437500
6637		15.625000
6638		19.531250
6639		13.671875
6640		17.578125
6641		9.765625
6642		15.625000
6643		7.812500
6644		11.718750
6645		3.906250
6646		9.765625
6647		1.953125
6648		5.859375
6649		-1.953125
6650		3.906250
6651		-3.906250
6652		0.000000
6653		-7.812500
6654		-1.953125
6655		-9.765625
6656		-5.859375
6657		-13.671875
6658		-7.812500
6659		-15.625000
6660		-11.718750
6661		-19.531250
6662		-13.671875
6663		-21.484375
6664		-17.578125
6665		-25.390625
6666		-19.531250
6667		-27.343750
6668		-23.437500
6669		-29.296875
6670		-25.390625
6671		-33.203125
6672		-29.296875
6673		-35.156250
6674		-31.250000
6675		-39.062500
6676		-35.156250
6677		-41.015625
6678		-37.109375
6679		-44.921875
6680		-39.062500
6681		-46.875000
6682		-42.968750
6683		-50.781250
6684		-44.921875
6685		-52.734375
6686		-48.828125
6687		-54.687500
6688		-50.781250
6689		-56.640625
6690		-52.734375
6691		-60.546875
6692		-54.687500
6693		-62.500000
6694		-58.593750
6695		-64.453125
6696		-60.546875
6697		-66.406250
6698		-62.500000
6699		-70.312500
6700		-66.406250
6701		-72.265625
6702		-68.359375
6703		-74.218750
6704		-70.312500
6705		-76.171875
6706		-72.265625
6707		-78.125000
6708		-74.218750
6709		-80.078125
6710		-76.171875
6711		-82.031250
6712		-78.125000
6713		-83.984375
6714		-80.078125
6715		-85.937500
6716		-82.031250
6717		-87.890625
6718		-83.984375
6719		-89.843750
6720		-85.937500
6721		-91.796875
6722		-87.890625
6723		-93.750000
6724		-89.843750
6725		-93.750000
6726		-91.796875
6727		-95.703125
6728		-93.750000
6729		-97.656250
6730		-93.750000
6731		-99.609375
6732		-95.703125
6733		-99.609375
6734		-97.656250
6735		-101.562500
6736		-97.656250
6737		-101.562500
6738		-99.609375
6739		-103.515625
6740		-99.609375
6741		-103.515625
6742		-101.562500
6743		-105.468750
6744		-101.562500
6745		-105.468750
6746		-103.515625
6747		-107.421875
6748		-103.515625
6749		-107.421875
6750		-105.468750
6751		-107.421875
6752		-105.468750
6753		-107.421875
6754		-105.468750
6755		-109.375000
6756		-107.421875
6757		-109.375000
6758		-107.421875
6759		-109.375000
6760		-107.421875
6761		-109.375000
6762		-107.421875
6763		-109.375000
6764		-107.421875
6765		-109.375000
6766		-107.421875
6767		-109.375000
6768		-107.421875
6769		-109.375000
6770		-107.421875
6771		-109.375000
6772		-105.468750
6773		-107.421875
6774		-105.468750
6775		-107.421875
6776		-105.468750
6777		-107.421875
6778		-105.468750
6779		-107.421875
6780		-103.515625
6781		-105.468750
6782		-103.515625
6783		-105.468750
6784		-101.562500
6785		-103.515625
6786		-101.562500
6787		-103.515625
6788		-101.562500
6789		-101.562500
6790		-99.609375
6791		-101.562500
6792		-97.656250
6793		-99.609375
6794		-97.656250
6795		-99.609375
6796		-95.703125
6797		-97.656250
6798		-93.750000
6799		-95.703125
6800		-93.750000
6801		-93.750000
6802		-91.796875
6803		-93.750000
6804		-89.843750
6805		-91.796875
6806		-87.890625
6807		-89.843750
6808		-85.937500
6809		-87.890625
6810		-83.984375
6811		-85.937500
6812		-82.031250
6813		-83.984375
6814		-80.078125
6815		-82.031250
6816		-78.125000
6817		-80.078125
6818		-76.171875
6819		-78.125000
6820		-74.218750
6821		-76.171875
6822		-72.265625
6823		-74.218750
6824		-70.312500
6825		-70.312500
6826		-66.406250
6827		-68.359375
6828		-64.453125
6829		-66.406250
6830		-62.500000
6831		-64.453125
6832		-60.546875
6833		-62.500000
6834		-56.640625
6835		-58.593750
6836		-54.687500
6837		-56.640625
6838		-52.734375
6839		-54.687500
6840		-50.781250
6841		-50.781250
6842		-46.875000
6843		-48.828125
6844		-44.921875
6845		-46.875000
6846		-41.015625
6847		-42.968750
6848		-39.062500
6849		-39.062500
6850		-37.109375
6851		-37.109375
6852		-33.203125
6853		-35.156250
6854		-31.250000
6855		-31.250000
6856		-27.343750
6857		-29.296875
6858		-25.390625
6859		-25.390625
6860		-21.484375
6861		-23.437500
6862		-19.531250
6863		-19.531250
6864		-15.625000
6865		-17.578125
6866		-13.671875
6867		-13.671875
6868		-9.765625
6869		-11.718750
6870		-7.812500
6871		-7.812500
6872		-3.906250
6873		-5.859375
6874		-1.953125
6875		-3.906250
6876		1.953125
6877		0.000000
6878		3.906250
6879		1.953125
6880		7.812500
6881		5.859375
6882		9.765625
6883		7.812500
6884		11.718750
6885		11.718750
6886		15.625000
6887		13.671875
6888		17.578125
6889		15.625000
6890		21.484375
6891		19.531250
6892		23.437500
6893		21.484375
6894		25.390625
6895		25.390625
6896		29.296875
6897		27.343750
6898		31.250000
6899		29.296875
6900		35.156250
6901		33.203125
6902		37.109375
6903		35.156250
6904		41.015625
6905		39.062500
6906		42.968750
6907		41.015625
6908		44.921875
6909		42.968750
6910		46.875000
6911		46.875000
6912		48.828125
6913		48.828125
6914		52.734375
6915		50.781250
6916		54.687500
6917		52.734375
6918		56.640625
6919		54.687500
6920		58.593750
6921		56.640625
6922		60.546875
6923		60.546875
6924		62.500000
6925		62.500000
6926		66.406250
6927		64.453125
6928		68.359375
6929		66.406250
6930		70.312500
6931		68.359375
6932		72.265625
6933		70.312500
6934		74.218750
6935		72.265625
6936		76.171875
6937		74.218750
6938		78.125000
6939		76.171875
6940		80.078125
6941		78.125000
6942		80.078125
6943		80.078125
6944		82.031250
6945		82.031250
6946		83.984375
6947		82.031250
6948		85.937500
6949		83.984375
6950		87.890625
6951		85.937500
6952		89.843750
6953		87.890625
6954		89.843750
6955		87.890625
6956		91.796875
6957		89.843750
6958		93.750000
6959		91.796875
6960		93.750000
6961		91.796875
6962		95.703125
6963		93.750000
6964		95.703125
6965		95.703125
6966		97.656250
6967		95.703125
6968		97.656250
6969		97.656250
6970		99.609375
6971		97.656250
6972		99.609375
6973		99.609375
6974		101.562500
6975		99.609375
6976		101.562500
6977		99.609375
6978		103.515625
6979		101.562500
6980		103.515625
6981		101.562500
6982		103.515625
6983		101.562500
6984		105.468750
6985		101.562500
6986		105.468750
6987		103.515625
6988		105.468750
6989		103.515625
6990		105.468750
6991		103.515625
6992		105.468750
6993		103.515625
6994		105.468750
6995		103.515625
6996		105.468750
6997		103.515625
6998		105.468750
6999		103.515625
7000		105.468750
7001		103.515625
7002		105.468750
7003		103.515625
7004		105.468750
7005		103.515625
7006		105.468750
7007		103.515625
7008		105.468750
7009		103.515625
7010		105.468750
7011		103.515625
7012		105.468750
7013		103.515625
7014		105.468750
7015		101.562500
7016		103.515625
7017		101.562500
7018		103.515625
7019		101.562500
7020		103.515625
7021		99.609375
7022		103.515625
7023		99.609375
7024		101.562500
7025		99.609375
7026		101.562500
7027		97.656250
7028		99.609375
7029		97.656250
7030		99.609375
7031		95.703125
7032		99.609375
7033		95.703125
7034		97.656250
7035		93.750000
7036		95.703125
7037		91.796875
7038		95.703125
7039		91.796875
7040		93.750000
7041		89.843750
7042		93.750000
7043		87.890625
7044		91.796875
7045		87.890625
7046		89.843750
7047		85.937500
7048		87.890625
7049		83.984375
7050		87.890625
7051		82.031250
7052		85.937500
7053		82.031250
7054		83.984375
7055		80.078125
7056		82.031250
7057		78.125000
7058		80.078125
7059		76.171875
7060		80.078125
7061		74.218750
7062		78.125000
7063		72.265625
7064		76.171875
7065		70.312500
7066		74.218750
7067		68.359375
7068		72.265625
7069		66.406250
7070		70.312500
7071		64.453125
7072		66.406250
7073		62.500000
7074		64.453125
7075		58.593750
7076		62.500000
7077		56.640625
7078		60.546875
7079		54.687500
7080		58.593750
7081		52.734375
7082		56.640625
7083		50.781250
7084		54.687500
7085		46.875000
7086		50.781250
7087		44.921875
7088		48.828125
7089		42.968750
7090		46.875000
7091		39.062500
7092		44.921875
7093		37.109375
7094		41.015625
7095		35.156250
7096		39.062500
7097		31.250000
7098		37.109375
7099		29.296875
7100		33.203125
7101		27.343750
7102		31.250000
7103		23.437500
7104		27.343750
7105		21.484375
7106		25.390625
7107		17.578125
7108		23.437500
7109		15.625000
7110		19.531250
7111		11.718750
7112		17.578125
7113		9.765625
7114		13.671875
7115		5.859375
7116		11.718750
7117		3.906250
7118		7.812500
7119		1.953125
7120		5.859375
7121		-1.953125
7122		1.953125
7123		-3.906250
7124		0.000000
7125		-7.812500
7126		-3.906250
7127		-9.765625
7128		-5.859375
7129		-13.671875
7130		-9.765625
7131		-15.625000
7132		-11.718750
7133		-19.531250
7134		-15.625000
7135		-21.484375
7136		-17.578125
7137		-25.390625
7138		-19.531250
7139		-27.343750
7140		-23.437500
7141		-29.296875
7142		-27.343750
7143		-33.203125
7144		-29.296875
7145		-37.109375
7146		-31.250000
7147		-39.062500
7148		-35.156250
7149		-41.015625
7150		-37.109375
7151		-44.921875
7152		-39.062500
7153		-46.875000
7154		-42.968750
7155		-48.828125
7156		-44.921875
7157		-52.734375
7158		-48.828125
7159		-54.687500
7160		-50.781250
7161		-56.640625
7162		-52.734375
7163		-60.546875
7164		-54.687500
7165		-62.500000
7166		-58.593750
7167		-64.453125
7168		-60.546875
7169		-66.406250
7170		-62.500000
7171		-68.359375
7172		-64.453125
7173		-72.265625
7174		-68.359375
7175		-74.218750
7176		-70.312500
7177		-76.171875
7178		-72.265625
7179		-78.125000
7180		-74.218750
7181		-80.078125
7182		-76.171875
7183		-82.031250
7184		-78.125000
7185		-83.984375
7186		-80.078125
7187		-85.937500
7188		-82.031250
7189		-87.890625
7190		-83.984375
7191		-89.843750
7192		-85.937500
7193		-89.843750
7194		-85.937500
7195		-91.796875
7196		-87.890625
7197		-93.750000
7198		-89.843750
7199		-93.750000
7200		-91.796875
7201		-95.703125
7202		-93.750000
7203		-97.656250
7204		-93.750000
7205		-97.656250
7206		-95.703125
7207		-99.609375
7208		-95.703125
7209		-101.562500
7210		-97.656250
7211		-101.562500
7212		-99.609375
7213		-103.515625
7214		-99.609375
7215		-103.515625
7216		-99.609375
7217		-103.515625
7218		-101.562500
7219		-105.468750
7220		-101.562500
7221		-105.468750
7222		-101.562500
7223		-105.468750
7224		-103.515625
7225		-105.468750
7226		-103.515625
7227		-105.468750
7228		-103.515625
7229		-105.468750
7230		-103.515625
7231		-107.421875
7232		-103.515625
7233		-107.421875
7234		-105.468750
7235		-107.421875
7236		-103.515625
7237		-107.421875
7238		-103.515625
7239		-105.468750
7240		-103.515625
7241		-105.468750
7242		-103.515625
7243		-105.468750
7244		-103.515625
7245		-105.468750
7246		-103.515625
7247		-105.468750
7248		-101.562500
7249		-103.515625
7250		-101.562500
7251		-103.515625
7252		-101.562500
7253		-103.515625
7254		-99.609375
7255		-101.562500
7256		-99.609375
7257		-101.562500
7258		-97.656250
7259		-99.609375
7260		-97.656250
7261		-99.609375
7262		-95.703125
7263		-97.656250
7264		-95.703125
7265		-95.703125
7266		-93.750000
7267		-95.703125
7268		-91.796875
7269		-93.750000
7270		-89.843750
7271		-91.796875
7272		-89.843750
7273		-89.843750
7274		-87.890625
7275		-89.843750
7276		-85.937500
7277		-87.890625
7278		-83.984375
7279		-85.937500
7280		-82.031250
7281		-83.984375
7282		-80.078125
7283		-82.031250
7284		-78.125000
7285		-80.078125
7286		-76.171875
7287		-78.125000
7288		-74.218750
7289		-76.171875
7290		-72.265625
7291		-74.218750
7292		-70.312500
7293		-72.265625
7294		-68.359375
7295		-68.359375
7296		-66.406250
7297		-66.406250
7298		-62.500000
7299		-64.453125
7300		-60.546875
7301		-62.500000
7302		-58.593750
7303		-60.546875
7304		-54.687500
7305		-56.640625
7306		-52.734375
7307		-54.687500
7308		-50.781250
7309		-52.734375
7310		-46.875000
7311		-48.828125
7312		-44.921875
7313		-46.875000
7314		-42.968750
7315		-42.968750
7316		-39.062500
7317		-41.015625
7318		-37.109375
7319		-39.062500
7320		-33.203125
7321		-35.156250
7322		-31.250000
7323		-33.203125
7324		-29.296875
7325		-29.296875
7326		-25.390625
7327		-27.343750
7328		-23.437500
7329		-23.437500
7330		-19.531250
7331		-21.484375
7332		-17.578125
7333		-19.531250
7334		-13.671875
7335		-15.625000
7336		-11.718750
7337		-13.671875
7338		-7.812500
7339		-9.765625
7340		-5.859375
7341		-7.812500
7342		-1.953125
7343		-3.906250
7344		0.000000
7345		-1.953125
7346		1.953125
7347		1.953125
7348		5.859375
7349		3.906250
7350		9.765625
7351		7.812500
7352		11.718750
7353		9.765625
7354		13.671875
7355		11.718750
7356		17.578125
7357		15.625000
7358		19.531250
7359		17.578125
7360		23.437500
7361		21.484375
7362		25.390625
7363		23.437500
7364		27.343750
7365		27.343750
7366		31.250000
7367		29.296875
7368		33.203125
7369		31.250000
7370		37.109375
7371		35.156250
7372		39.062500
7373		37.109375
7374		41.015625
7375		39.062500
7376		44.921875
7377		42.968750
7378		46.875000
7379		44.921875
7380		48.828125
7381		46.875000
7382		50.781250
7383		48.828125
7384		52.734375
7385		50.781250
7386		56.640625
7387		54.687500
7388		58.593750
7389		56.640625
7390		62.500000
7391		58.593750
7392		62.500000
7393		60.546875
7394		64.453125
7395		64.453125
7396		66.406250
7397		64.453125
7398		68.359375
7399		68.359375
7400		70.312500
7401		68.359375
7402		74.218750
7403		70.312500
7404		76.171875
7405		74.218750
7406		78.125000
7407		72.265625
7408		80.078125
7409		76.171875
7410		82.031250
7411		80.078125
7412		82.031250
7413		80.078125
7414		83.984375
7415		82.031250
7416		85.937500
7417		83.984375
7418		87.890625
7419		83.984375
7420		89.843750
7421		85.937500
7422		89.843750
7423		87.890625
7424		93.750000
7425		89.843750
7426		93.750000
7427		89.843750
7428		95.703125
7429		93.750000
7430		95.703125
7431		93.750000
7432		97.656250
7433		93.750000
7434		99.609375
7435		95.703125
7436		101.562500
7437		97.656250
7438		101.562500
7439		97.656250
7440		103.515625
7441		99.609375
7442		101.562500
7443		97.656250
7444		105.468750
7445		101.562500
7446		103.515625
7447		101.562500
7448		103.515625
7449		101.562500
7450		107.421875
7451		99.609375
7452		107.421875
7453		103.515625
7454		107.421875
7455		103.515625
7456		107.421875
7457		103.515625
7458		109.375000
7459		103.515625
7460		109.375000
7461		105.468750
7462		107.421875
7463		105.468750
7464		107.421875
7465		105.468750
7466		109.375000
7467		103.515625
7468		111.328125
7469		103.515625
7470		109.375000
7471		105.468750
7472		109.375000
7473		103.515625
7474		111.328125
7475		103.515625
7476		111.328125
7477		101.562500
7478		111.328125
7479		105.468750
7480		107.421875
7481		105.468750
7482		107.421875
7483		103.515625
7484		111.328125
7485		101.562500
7486		109.375000
7487		103.515625
7488		107.421875
7489		103.515625
7490		107.421875
7491		99.609375
7492		107.421875
7493		97.656250
7494		107.421875
7495		101.562500
7496		103.515625
7497		99.609375
7498		103.515625
7499		97.656250
7500		103.515625
7501		95.703125
7502		103.515625
7503		95.703125
7504		101.562500
7505		95.703125
7506		99.609375
7507		91.796875
7508		101.562500
7509		93.750000
7510		99.609375
7511		89.843750
7512		97.656250
7513		91.796875
7514		93.750000
7515		89.843750
7516		93.750000
7517		85.937500
7518		93.750000
7519		85.937500
7520		91.796875
7521		85.937500
7522		87.890625
7523		82.031250
7524		87.890625
7525		80.078125
7526		89.843750
7527		78.125000
7528		85.937500
7529		78.125000
7530		82.031250
7531		76.171875
7532		80.078125
7533		74.218750
7534		80.078125
7535		72.265625
7536		80.078125
7537		70.312500
7538		76.171875
7539		68.359375
7540		72.265625
7541		64.453125
7542		72.265625
7543		64.453125
7544		68.359375
7545		62.500000
7546		70.312500
7547		58.593750
7548		64.453125
7549		56.640625
7550		62.500000
7551		52.734375
7552		60.546875
7553		52.734375
7554		58.593750
7555		50.781250
7556		54.687500
7557		44.921875
7558		52.734375
7559		42.968750
7560		54.687500
7561		41.015625
7562		48.828125
7563		41.015625
7564		44.921875
7565		39.062500
7566		42.968750
7567		35.156250
7568		41.015625
7569		31.250000
7570		41.015625
7571		29.296875
7572		35.156250
7573		27.343750
7574		31.250000
7575		21.484375
7576		31.250000
7577		19.531250
7578		27.343750
7579		19.531250
7580		23.437500
7581		15.625000
7582		19.531250
7583		11.718750
7584		17.578125
7585		7.812500
7586		17.578125
7587		7.812500
7588		13.671875
7589		5.859375
7590		9.765625
7591		0.000000
7592		7.812500
7593		-1.953125
7594		5.859375
7595		-3.906250
7596		3.906250
7597		-5.859375
7598		-1.953125
7599		-9.765625
7600		-5.859375
7601		-15.625000
7602		-7.812500
7603		-17.578125
7604		-9.765625
7605		-17.578125
7606		-13.671875
7607		-23.437500
7608		-17.578125
7609		-25.390625
7610		-15.625000
7611		-27.343750
7612		-21.484375
7613		-29.296875
7614		-25.390625
7615		-33.203125
7616		-27.343750
7617		-37.109375
7618		-31.250000
7619		-39.062500
7620		-29.296875
7621		-41.015625
7622		-35.156250
7623		-42.968750
7624		-39.062500
7625		-48.828125
7626		-39.062500
7627		-48.828125
7628		-42.968750
7629		-50.781250
7630		-42.968750
7631		-52.734375
7632		-48.828125
7633		-56.640625
7634		-52.734375
7635		-60.546875
7636		-52.734375
7637		-62.500000
7638		-56.640625
7639		-62.500000
7640		-58.593750
7641		-68.359375
7642		-60.546875
7643		-68.359375
7644		-60.546875
7645		-70.312500
7646		-64.453125
7647		-72.265625
7648		-68.359375
7649		-74.218750
7650		-70.312500
7651		-78.125000
7652		-72.265625
7653		-80.078125
7654		-72.265625
7655		-80.078125
7656		-76.171875
7657		-83.984375
7658		-78.125000
7659		-83.984375
7660		-78.125000
7661		-87.890625
7662		-80.078125
7663		-87.890625
7664		-83.984375
7665		-87.890625
7666		-85.937500
7667		-89.843750
7668		-87.890625
7669		-93.750000
7670		-87.890625
7671		-93.750000
7672		-87.890625
7673		-93.750000
7674		-91.796875
7675		-97.656250
7676		-91.796875
7677		-97.656250
7678		-93.750000
7679		-97.656250
7680		-95.703125
7681		-99.609375
7682		-95.703125
7683		-99.609375
7684		-97.656250
7685		-99.609375
7686		-97.656250
7687		-103.515625
7688		-97.656250
7689		-103.515625
7690		-99.609375
7691		-103.515625
7692		-99.609375
7693		-105.468750
7694		-99.609375
7695		-103.515625
7696		-101.562500
7697		-103.515625
7698		-101.562500
7699		-103.515625
7700		-101.562500
7701		-105.468750
7702		-101.562500
7703		-103.515625
7704		-101.562500
7705		-103.515625
7706		-101.562500
7707		-105.468750
7708		-101.562500
7709		-103.515625
7710		-101.562500
7711		-103.515625
7712		-101.562500
7713		-105.468750
7714		-101.562500
7715		-103.515625
7716		-101.562500
7717		-103.515625
7718		-99.609375
7719		-101.562500
7720		-99.609375
7721		-101.562500
7722		-99.609375
7723		-101.562500
7724		-97.656250
7725		-99.609375
7726		-97.656250
7727		-99.609375
7728		-97.656250
7729		-99.609375
7730		-95.703125
7731		-97.656250
7732		-93.750000
7733		-95.703125
7734		-93.750000
7735		-97.656250
7736		-91.796875
7737		-95.703125
7738		-89.843750
7739		-93.750000
7740		-87.890625
7741		-93.750000
7742		-87.890625
7743		-89.843750
7744		-85.937500
7745		-89.843750
7746		-83.984375
7747		-87.890625
7748		-83.984375
7749		-83.984375
7750		-82.031250
7751		-83.984375
7752		-78.125000
7753		-82.031250
7754		-76.171875
7755		-82.031250
7756		-74.218750
7757		-78.125000
7758		-72.265625
7759		-76.171875
7760		-70.312500
7761		-74.218750
7762		-68.359375
7763		-72.265625
7764		-66.406250
7765		-68.359375
7766		-64.453125
7767		-66.406250
7768		-60.546875
7769		-64.453125
7770		-58.593750
7771		-62.500000
7772		-56.640625
7773		-60.546875
7774		-54.687500
7775		-58.593750
7776		-50.781250
7777		-54.687500
7778		-48.828125
7779		-50.781250
7780		-46.875000
7781		-48.828125
7782		-44.921875
7783		-46.875000
7784		-42.968750
7785		-44.921875
7786		-39.062500
7787		-42.968750
7788		-37.109375
7789		-39.062500
7790		-33.203125
7791		-37.109375
7792		-31.250000
7793		-33.203125
7794		-27.343750
7795		-31.250000
7796		-25.390625
7797		-27.343750
7798		-23.437500
7799		-25.390625
7800		-19.531250
7801		-21.484375
7802		-15.625000
7803		-19.531250
7804		-13.671875
7805		-17.578125
7806		-11.718750
7807		-13.671875
7808		-7.812500
7809		-9.765625
7810		-3.906250
7811		-7.812500
7812		-3.906250
7813		-5.859375
7814		0.000000
7815		-1.953125
7816		1.953125
7817		1.953125
7818		5.859375
7819		1.953125
7820		9.765625
7821		5.859375
7822		11.718750
7823		9.765625
7824		13.671875
7825		9.765625
7826		17.578125
7827		15.625000
7828		19.531250
7829		17.578125
7830		23.437500
7831		19.531250
7832		25.390625
7833		23.437500
7834		27.343750
7835		25.390625
7836		31.250000
7837		29.296875
7838		33.203125
7839		31.250000
7840		35.156250
7841		33.203125
7842		39.062500
7843		37.109375
7844		41.015625
7845		39.062500
7846		44.921875
7847		41.015625
7848		46.875000
7849		44.921875
7850		48.828125
7851		46.875000
7852		52.734375
7853		48.828125
7854		54.687500
7855		52.734375
7856		56.640625
7857		52.734375
7858		60.546875
7859		56.640625
7860		60.546875
7861		58.593750
7862		62.500000
7863		60.546875
7864		66.406250
7865		64.453125
7866		66.406250
7867		64.453125
7868		68.359375
7869		66.406250
7870		72.265625
7871		70.312500
7872		74.218750
7873		72.265625
7874		76.171875
7875		72.265625
7876		78.125000
7877		74.218750
7878		80.078125
7879		78.125000
7880		80.078125
7881		78.125000
7882		82.031250
7883		80.078125
7884		83.984375
7885		82.031250
7886		85.937500
7887		83.984375
7888		87.890625
7889		85.937500
7890		89.843750
7891		85.937500
7892		91.796875
7893		87.890625
7894		93.750000
7895		89.843750
7896		93.750000
7897		91.796875
7898		95.703125
7899		93.750000
7900		95.703125
7901		93.750000
7902		97.656250
7903		95.703125
7904		99.609375
7905		95.703125
7906		99.609375
7907		97.656250
7908		101.562500
7909		97.656250
7910		103.515625
7911		99.609375
7912		103.515625
7913		99.609375
7914		103.515625
7915		99.609375
7916		103.515625
7917		103.515625
7918		105.468750
7919		103.515625
7920		105.468750
7921		103.515625
7922		107.421875
7923		103.515625
7924		107.421875
7925		103.515625
7926		109.375000
7927		105.468750
7928		107.421875
7929		105.468750
7930		109.375000
7931		105.468750
7932		109.375000
7933		107.421875
7934		109.375000
7935		105.468750
7936		109.375000
7937		107.421875
7938		109.375000
7939		107.421875
7940		109.375000
7941		105.468750
7942		111.328125
7943		107.421875
7944		109.375000
7945		107.421875
7946		109.375000
7947		107.421875
7948		109.375000
7949		107.421875
7950		109.375000
7951		107.421875
7952		109.375000
7953		105.468750
7954		109.375000
7955		105.468750
7956		109.375000
7957		105.468750
7958		109.375000
7959		103.515625
7960		107.421875
7961		103.515625
7962		107.421875
7963		103.515625
7964		107.421875
7965		103.515625
7966		105.468750
7967		101.562500
7968		105.468750
7969		99.609375
7970		103.515625
7971		99.609375
7972		103.515625
7973		99.609375
7974		103.515625
7975		97.656250
7976		101.562500
7977		97.656250
7978		101.562500
7979		95.703125
7980		99.609375
7981		93.750000
7982		97.656250
7983		93.750000
7984		97.656250
7985		91.796875
7986		95.703125
7987		89.843750
7988		95.703125
7989		89.843750
7990		93.750000
7991		87.890625
7992		91.796875
7993		85.937500
7994		89.843750
7995		83.984375
7996		87.890625
7997		83.984375
7998		87.890625
7999		82.031250
8000		85.937500
8001		80.078125
8002		83.984375
8003		76.171875
8004		82.031250
8005		74.218750
8006		80.078125
8007		74.218750
8008		78.125000
8009		72.265625
8010		76.171875
8011		70.312500
8012		74.218750
8013		68.359375
8014		72.265625
8015		64.453125
8016		70.312500
8017		64.453125
8018		66.406250
8019		60.546875
8020		64.453125
8021		58.593750
8022		62.500000
8023		56.640625
8024		60.546875
8025		54.687500
8026		58.593750
8027		50.781250
8028		56.640625
8029		48.828125
8030		54.687500
8031		46.875000
8032		50.781250
8033		44.921875
8034		48.828125
8035		41.015625
8036		46.875000
8037		39.062500
8038		44.921875
8039		37.109375
8040		41.015625
8041		33.203125
8042		39.062500
8043		31.250000
8044		35.156250
8045		27.343750
8046		33.203125
8047		25.390625
8048		29.296875
8049		23.437500
8050		27.343750
8051		19.531250
8052		23.437500
8053		17.578125
8054		21.484375
8055		13.671875
8056		19.531250
8057		9.765625
8058		15.625000
8059		9.765625
8060		13.671875
8061		5.859375
8062		9.765625
8063		1.953125
8064		7.812500
8065		-1.953125
8066		3.906250
8067		-3.906250
8068		1.953125
8069		-5.859375
8070		-1.953125
8071		-7.812500
8072		-3.906250
8073		-11.718750
8074		-5.859375
8075		-15.625000
8076		-9.765625
8077		-17.578125
8078		-13.671875
8079		-19.531250
8080		-15.625000
8081		-23.437500
8082		-17.578125
8083		-25.390625
8084		-19.531250
8085		-29.296875
8086		-23.437500
8087		-31.250000
8088		-27.343750
8089		-35.156250
8090		-29.296875
8091		-37.109375
8092		-33.203125
8093		-39.062500
8094		-35.156250
8095		-42.968750
8096		-37.109375
8097		-44.921875
8098		-41.015625
8099		-46.875000
8100		-42.968750
8101		-50.781250
8102		-46.875000
8103		-54.687500
8104		-48.828125
8105		-56.640625
8106		-50.781250
8107		-58.593750
8108		-52.734375
8109		-60.546875
8110		-56.640625
8111		-62.500000
8112		-58.593750
8113		-64.453125
8114		-60.546875
8115		-68.359375
8116		-62.500000
8117		-70.312500
8118		-66.406250
8119		-72.265625
8120		-68.359375
8121		-74.218750
8122		-70.312500
8123		-76.171875
8124		-70.312500
8125		-78.125000
8126		-74.218750
8127		-80.078125
8128		-76.171875
8129		-82.031250
8130		-78.125000
8131		-83.984375
8132		-80.078125
8133		-85.937500
8134		-80.078125
8135		-85.937500
8136		-83.984375
8137		-89.843750
8138		-85.937500
8139		-89.843750
8140		-85.937500
8141		-91.796875
8142		-87.890625
8143		-93.750000
8144		-89.843750
8145		-93.750000
8146		-91.796875
8147		-95.703125
8148		-91.796875
8149		-97.656250
8150		-93.750000
8151		-97.656250
8152		-95.703125
8153		-99.609375
8154		-95.703125
8155		-99.609375
8156		-95.703125
8157		-101.562500
8158		-97.656250
8159		-101.562500
8160		-97.656250
8161		-103.515625
8162		-99.609375
8163		-103.515625
8164		-99.609375
8165		-103.515625
8166		-99.609375
8167		-103.515625
8168		-101.562500
8169		-105.468750
8170		-101.562500
8171		-105.468750
8172		-101.562500
8173		-105.468750
8174		-101.562500
8175		-105.468750
8176		-101.562500
8177		-105.468750
8178		-103.515625
8179		-105.468750
8180		-101.562500
8181		-105.468750
8182		-101.562500
8183		-105.468750
8184		-101.562500
8185		-105.468750
8186		-101.562500
8187		-103.515625
8188		-101.562500
8189		-103.515625
8190		-99.609375
8191		-103.515625
8192		-99.609375
8193		-103.515625
8194		-99.609375
8195		-101.562500
8196		-99.609375
8197		-101.562500
8198		-97.656250
8199		-99.609375
8200		-95.703125
8201		-99.609375
8202		-95.703125
8203		-97.656250
8204		-95.703125
8205		-97.656250
8206		-93.750000
8207		-95.703125
8208		-91.796875
8209		-93.750000
8210		-91.796875
8211		-93.750000
8212		-89.843750
8213		-91.796875
8214		-87.890625
8215		-89.843750
8216		-87.890625
8217		-89.843750
8218		-85.937500
8219		-87.890625
8220		-83.984375
8221		-85.937500
8222		-82.031250
8223		-83.984375
8224		-80.078125
8225		-82.031250
8226		-78.125000
8227		-80.078125
8228		-76.171875
8229		-78.125000
8230		-74.218750
8231		-76.171875
8232		-72.265625
8233		-74.218750
8234		-70.312500
8235		-72.265625
8236		-68.359375
8237		-70.312500
8238		-64.453125
8239		-68.359375
8240		-62.500000
8241		-64.453125
8242		-60.546875
8243		-62.500000
8244		-58.593750
8245		-60.546875
8246		-54.687500
8247		-58.593750
8248		-52.734375
8249		-54.687500
8250		-50.781250
8251		-52.734375
8252		-48.828125
8253		-50.781250
8254		-46.875000
8255		-46.875000
8256		-42.968750
8257		-44.921875
8258		-41.015625
8259		-41.015625
8260		-37.109375
8261		-39.062500
8262		-35.156250
8263		-37.109375
8264		-31.250000
8265		-33.203125
8266		-29.296875
8267		-31.250000
8268		-25.390625
8269		-27.343750
8270		-23.437500
8271		-25.390625
8272		-21.484375
8273		-23.437500
8274		-17.578125
8275		-19.531250
8276		-15.625000
8277		-17.578125
8278		-11.718750
8279		-13.671875
8280		-9.765625
8281		-11.718750
8282		-5.859375
8283		-7.812500
8284		-1.953125
8285		-5.859375
8286		0.000000
8287		-1.953125
8288		1.953125
8289		0.000000
8290		3.906250
8291		3.906250
8292		7.812500
8293		5.859375
8294		9.765625
8295		7.812500
8296		13.671875
8297		11.718750
8298		15.625000
8299		13.671875
8300		19.531250
8301		17.578125
8302		21.484375
8303		19.531250
8304		23.437500
8305		23.437500
8306		27.343750
8307		25.390625
8308		29.296875
8309		29.296875
8310		33.203125
8311		31.250000
8312		35.156250
8313		33.203125
8314		37.109375
8315		35.156250
8316		41.015625
8317		39.062500
8318		42.968750
8319		41.015625
8320		44.921875
8321		44.921875
8322		48.828125
8323		46.875000
8324		50.781250
8325		48.828125
8326		52.734375
8327		50.781250
8328		54.687500
8329		54.687500
8330		56.640625
8331		56.640625
8332		60.546875
8333		58.593750
8334		62.500000
8335		60.546875
8336		64.453125
8337		62.500000
8338		68.359375
8339		64.453125
8340		68.359375
8341		66.406250
8342		70.312500
8343		68.359375
8344		72.265625
8345		70.312500
8346		74.218750
8347		72.265625
8348		76.171875
8349		74.218750
8350		78.125000
8351		76.171875
8352		82.031250
8353		78.125000
8354		82.031250
8355		80.078125
8356		83.984375
8357		80.078125
8358		85.937500
8359		83.984375
8360		87.890625
8361		85.937500
8362		87.890625
8363		87.890625
8364		91.796875
8365		87.890625
8366		91.796875
8367		89.843750
8368		93.750000
8369		91.796875
8370		95.703125
8371		91.796875
8372		95.703125
8373		93.750000
8374		97.656250
8375		93.750000
8376		97.656250
8377		95.703125
8378		99.609375
8379		97.656250
8380		99.609375
8381		97.656250
8382		101.562500
8383		97.656250
8384		103.515625
8385		99.609375
8386		103.515625
8387		101.562500
8388		103.515625
8389		101.562500
8390		105.468750
8391		101.562500
8392		105.468750
8393		103.515625
8394		105.468750
8395		103.515625
8396		107.421875
8397		103.515625
8398		107.421875
8399		105.468750
8400		107.421875
8401		105.468750
8402		109.375000
8403		105.468750
8404		109.375000
8405		105.468750
8406		109.375000
8407		105.468750
8408		109.375000
8409		107.421875
8410		109.375000
8411		107.421875
8412		109.375000
8413		105.468750
8414		109.375000
8415		107.421875
8416		109.375000
8417		105.468750
8418		109.375000
8419		105.468750
8420		109.375000
8421		107.421875
8422		109.375000
8423		105.468750
8424		109.375000
8425		105.468750
8426		109.375000
8427		105.468750
8428		107.421875
8429		105.468750
8430		107.421875
8431		103.515625
8432		107.421875
8433		103.515625
8434		105.468750
8435		103.515625
8436		105.468750
8437		103.515625
8438		105.468750
8439		101.562500
8440		103.515625
8441		99.609375
8442		103.515625
8443		99.609375
8444		103.515625
8445		99.609375
8446		103.515625
8447		97.656250
8448		99.609375
8449		97.656250
8450		99.609375
8451		95.703125
8452		99.609375
8453		93.750000
8454		97.656250
8455		91.796875
8456		95.703125
8457		91.796875
8458		95.703125
8459		89.843750
8460		93.750000
8461		87.890625
8462		91.796875
8463		85.937500
8464		89.843750
8465		85.937500
8466		89.843750
8467		83.984375
8468		87.890625
8469		82.031250
8470		85.937500
8471		80.078125
8472		83.984375
8473		78.125000
8474		82.031250
8475		76.171875
8476		80.078125
8477		74.218750
8478		78.125000
8479		72.265625
8480		78.125000
8481		70.312500
8482		74.218750
8483		68.359375
8484		72.265625
8485		66.406250
8486		70.312500
8487		64.453125
8488		68.359375
8489		62.500000
8490		66.406250
8491		60.546875
8492		64.453125
8493		58.593750
8494		62.500000
8495		54.687500
8496		60.546875
8497		52.734375
8498		56.640625
8499		50.781250
8500		54.687500
8501		48.828125
8502		52.734375
8503		46.875000
8504		50.781250
8505		42.968750
8506		46.875000
8507		41.015625
8508		44.921875
8509		37.109375
8510		42.968750
8511		35.156250
8512		39.062500
8513		33.203125
8514		37.109375
8515		29.296875
8516		35.156250
8517		27.343750
8518		31.250000
8519		23.437500
8520		29.296875
8521		21.484375
8522		25.390625
8523		19.531250
8524		23.437500
8525		15.625000
8526		21.484375
8527		11.718750
8528		17.578125
8529		9.765625
8530		13.671875
8531		7.812500
8532		11.718750
8533		3.906250
8534		9.765625
8535		1.953125
8536		7.812500
8537		-1.953125
8538		3.906250
8539		-3.906250
8540		0.000000
8541		-7.812500
8542		-1.953125
8543		-9.765625
8544		-5.859375
8545		-13.671875
8546		-7.812500
8547		-15.625000
8548		-11.718750
8549		-19.531250
8550		-13.671875
8551		-21.484375
8552		-15.625000
8553		-23.437500
8554		-19.531250
8555		-27.343750
8556		-23.437500
8557		-31.250000
8558		-25.390625
8559		-33.203125
8560		-29.296875
8561		-35.156250
8562		-31.250000
8563		-39.062500
8564		-33.203125
8565		-41.015625
8566		-37.109375
8567		-42.968750
8568		-39.062500
8569		-46.875000
8570		-41.015625
8571		-48.828125
8572		-44.921875
8573		-50.781250
8574		-46.875000
8575		-54.687500
8576		-48.828125
8577		-56.640625
8578		-52.734375
8579		-58.593750
8580		-54.687500
8581		-60.546875
8582		-56.640625
8583		-64.453125
8584		-60.546875
8585		-66.406250
8586		-62.500000
8587		-68.359375
8588		-64.453125
8589		-70.312500
8590		-66.406250
8591		-72.265625
8592		-68.359375
8593		-74.218750
8594		-70.312500
8595		-76.171875
8596		-72.265625
8597		-78.125000
8598		-76.171875
8599		-82.031250
8600		-76.171875
8601		-82.031250
8602		-80.078125
8603		-85.937500
8604		-80.078125
8605		-85.937500
8606		-82.031250
8607		-87.890625
8608		-83.984375
8609		-89.843750
8610		-85.937500
8611		-91.796875
8612		-87.890625
8613		-91.796875
8614		-89.843750
8615		-93.750000
8616		-89.843750
8617		-95.703125
8618		-91.796875
8619		-95.703125
8620		-91.796875
8621		-97.656250
8622		-93.750000
8623		-97.656250
8624		-95.703125
8625		-99.609375
8626		-95.703125
8627		-99.609375
8628		-97.656250
8629		-101.562500
8630		-97.656250
8631		-101.562500
8632		-99.609375
8633		-103.515625
8634		-99.609375
8635		-103.515625
8636		-99.609375
8637		-103.515625
8638		-101.562500
8639		-105.468750
8640		-101.562500
8641		-105.468750
8642		-101.562500
8643		-105.468750
8644		-101.562500
8645		-105.468750
8646		-101.562500
8647		-105.468750
8648		-101.562500
8649		-105.468750
8650		-101.562500
8651		-105.468750
8652		-101.562500
8653		-105.468750
8654		-101.562500
8655		-103.515625
8656		-101.562500
8657		-103.515625
8658		-101.562500
8659		-105.468750
8660		-101.562500
8661		-103.515625
8662		-101.562500
8663		-103.515625
8664		-99.609375
8665		-101.562500
8666		-99.609375
8667		-101.562500
8668		-97.656250
8669		-101.562500
8670		-97.656250
8671		-101.562500
8672		-97.656250
8673		-99.609375
8674		-95.703125
8675		-97.656250
8676		-93.750000
8677		-95.703125
8678		-93.750000
8679		-95.703125
8680		-91.796875
8681		-93.750000
8682		-91.796875
8683		-93.750000
8684		-89.843750
8685		-91.796875
8686		-87.890625
8687		-89.843750
8688		-85.937500
8689		-87.890625
8690		-83.984375
8691		-85.937500
8692		-83.984375
8693		-85.937500
8694		-82.031250
8695		-83.984375
8696		-80.078125
8697		-82.031250
8698		-76.171875
8699		-80.078125
8700		-74.218750
8701		-78.125000
8702		-74.218750
8703		-76.171875
8704		-72.265625
8705		-74.218750
8706		-68.359375
8707		-70.312500
8708		-66.406250
8709		-68.359375
8710		-64.453125
8711		-66.406250
8712		-62.500000
8713		-64.453125
8714		-60.546875
8715		-62.500000
8716		-56.640625
8717		-58.593750
8718		-54.687500
8719		-56.640625
8720		-52.734375
8721		-54.687500
8722		-50.781250
8723		-50.781250
8724		-46.875000
8725		-48.828125
8726		-42.968750
8727		-48.828125
8728		-42.968750
8729		-44.921875
8730		-39.062500
8731		-41.015625
8732		-37.109375
8733		-39.062500
8734		-33.203125
8735		-37.109375
8736		-31.250000
8737		-33.203125
8738		-27.343750
8739		-29.296875
8740		-25.390625
8741		-27.343750
8742		-23.437500
8743		-23.437500
8744		-19.531250
8745		-21.484375
8746		-17.578125
8747		-19.531250
8748		-13.671875
8749		-15.625000
8750		-11.718750
8751		-13.671875
8752		-7.812500
8753		-9.765625
8754		-5.859375
8755		-7.812500
8756		-1.953125
8757		-3.906250
8758		0.000000
8759		-1.953125
8760		3.906250
8761		1.953125
8762		5.859375
8763		3.906250
8764		7.812500
8765		5.859375
8766		11.718750
8767		9.765625
8768		15.625000
8769		13.671875
8770		17.578125
8771		15.625000
8772		19.531250
8773		17.578125
8774		21.484375
8775		21.484375
8776		25.390625
8777		23.437500
8778		27.343750
8779		25.390625
8780		31.250000
8781		29.296875
8782		33.203125
8783		31.250000
8784		37.109375
8785		35.156250
8786		39.062500
8787		37.109375
8788		41.015625
8789		39.062500
8790		42.968750
8791		41.015625
8792		46.875000
8793		44.921875
8794		48.828125
8795		46.875000
8796		50.781250
8797		48.828125
8798		52.734375
8799		50.781250
8800		56.640625
8801		54.687500
8802		58.593750
8803		56.640625
8804		62.500000
8805		58.593750
8806		64.453125
8807		60.546875
8808		64.453125
8809		62.500000
8810		66.406250
8811		64.453125
8812		70.312500
8813		66.406250
8814		72.265625
8815		70.312500
8816		74.218750
8817		72.265625
8818		76.171875
8819		74.218750
8820		78.125000
8821		76.171875
8822		80.078125
8823		78.125000
8824		80.078125
8825		80.078125
8826		82.031250
8827		80.078125
8828		83.984375
8829		82.031250
8830		85.937500
8831		83.984375
8832		87.890625
8833		83.984375
8834		89.843750
8835		87.890625
8836		91.796875
8837		87.890625
8838		91.796875
8839		87.890625
8840		93.750000
8841		91.796875
8842		93.750000
8843		91.796875
8844		97.656250
8845		93.750000
8846		97.656250
8847		93.750000
8848		97.656250
8849		95.703125
8850		99.609375
8851		97.656250
8852		101.562500
8853		97.656250
8854		101.562500
8855		99.609375
8856		103.515625
8857		99.609375
8858		103.515625
8859		101.562500
8860		103.515625
8861		101.562500
8862		105.468750
8863		101.562500
8864		105.468750
8865		103.515625
8866		105.468750
8867		103.515625
8868		107.421875
8869		103.515625
8870		107.421875
8871		105.468750
8872		107.421875
8873		103.515625
8874		107.421875
8875		105.468750
8876		107.421875
8877		105.468750
8878		109.375000
8879		105.468750
8880		109.375000
8881		105.468750
8882		109.375000
8883		105.468750
8884		109.375000
8885		105.468750
8886		109.375000
8887		105.468750
8888		109.375000
8889		105.468750
8890		109.375000
8891		105.468750
8892		107.421875
8893		105.468750
8894		107.421875
8895		105.468750
8896		109.375000
8897		105.468750
8898		107.421875
8899		103.515625
8900		107.421875
8901		103.515625
8902		107.421875
8903		103.515625
8904		105.468750
8905		101.562500
8906		105.468750
8907		101.562500
8908		105.468750
8909		101.562500
8910		103.515625
8911		99.609375
8912		103.515625
8913		99.609375
8914		103.515625
8915		97.656250
8916		101.562500
8917		97.656250
8918		101.562500
8919		95.703125
8920		99.609375
8921		95.703125
8922		99.609375
8923		93.750000
8924		97.656250
8925		93.750000
8926		95.703125
8927		89.843750
8928		95.703125
8929		89.843750
8930		93.750000
8931		89.843750
8932		91.796875
8933		87.890625
8934		89.843750
8935		85.937500
8936		89.843750
8937		83.984375
8938		87.890625
8939		82.031250
8940		85.937500
8941		80.078125
8942		83.984375
8943		80.078125
8944		82.031250
8945		76.171875
8946		82.031250
8947		76.171875
8948		80.078125
8949		74.218750
8950		78.125000
8951		72.265625
8952		76.171875
8953		68.359375
8954		74.218750
8955		66.406250
8956		70.312500
8957		64.453125
8958		70.312500
8959		62.500000
8960		66.406250
8961		60.546875
8962		64.453125
8963		58.593750
8964		62.500000
8965		56.640625
8966		60.546875
8967		54.687500
8968		58.593750
8969		50.781250
8970		56.640625
8971		48.828125
8972		52.734375
8973		46.875000
8974		50.781250
8975		42.968750
8976		48.828125
8977		41.015625
8978		44.921875
8979		39.062500
8980		42.968750
8981		37.109375
8982		41.015625
8983		33.203125
8984		37.109375
8985		31.250000
8986		35.156250
8987		27.343750
8988		33.203125
8989		25.390625
8990		29.296875
8991		23.437500
8992		27.343750
8993		19.531250
8994		23.437500
8995		17.578125
8996		21.484375
8997		13.671875
8998		19.531250
8999		11.718750
9000		15.625000
9001		7.812500
9002		13.671875
9003		5.859375
9004		9.765625
9005		1.953125
9006		7.812500
9007		0.000000
9008		3.906250
9009		-3.906250
9010		1.953125
9011		-7.812500
9012		-1.953125
9013		-9.765625
9014		-3.906250
9015		-11.718750
9016		-7.812500
9017		-13.671875
9018		-9.765625
9019		-17.578125
9020		-11.718750
9021		-19.531250
9022		-15.625000
9023		-23.437500
9024		-19.531250
9025		-25.390625
9026		-21.484375
9027		-29.296875
9028		-25.390625
9029		-31.250000
9030		-27.343750
9031		-35.156250
9032		-29.296875
9033		-37.109375
9034		-31.250000
9035		-39.062500
9036		-35.156250
9037		-42.968750
9038		-37.109375
9039		-44.921875
9040		-41.015625
9041		-48.828125
9042		-42.968750
9043		-50.781250
9044		-44.921875
9045		-52.734375
9046		-48.828125
9047		-54.687500
9048		-50.781250
9049		-58.593750
9050		-52.734375
9051		-60.546875
9052		-56.640625
9053		-62.500000
9054		-58.593750
9055		-64.453125
9056		-60.546875
9057		-68.359375
9058		-62.500000
9059		-70.312500
9060		-66.406250
9061		-72.265625
9062		-68.359375
9063		-74.218750
9064		-70.312500
9065		-76.171875
9066		-72.265625
9067		-78.125000
9068		-74.218750
9069		-80.078125
9070		-76.171875
9071		-82.031250
9072		-78.125000
9073		-83.984375
9074		-80.078125
9075		-85.937500
9076		-82.031250
9077		-87.890625
9078		-83.984375
9079		-89.843750
9080		-85.937500
9081		-89.843750
9082		-85.937500
9083		-91.796875
9084		-87.890625
9085		-93.750000
9086		-89.843750
9087		-93.750000
9088		-89.843750
9089		-95.703125
9090		-91.796875
9091		-97.656250
9092		-93.750000
9093		-97.656250
9094		-95.703125
9095		-99.609375
9096		-95.703125
9097		-101.562500
9098		-97.656250
9099		-101.562500
9100		-97.656250
9101		-101.562500
9102		-97.656250
9103		-103.515625
9104		-99.609375
9105		-103.515625
9106		-99.609375
9107		-105.468750
9108		-99.609375
9109		-103.515625
9110		-101.562500
9111		-105.468750
9112		-101.562500
9113		-105.468750
9114		-101.562500
9115		-105.468750
9116		-101.562500
9117		-105.468750
9118		-103.515625
9119		-105.468750
9120		-103.515625
9121		-105.468750
9122		-101.562500
9123		-105.468750
9124		-101.562500
9125		-105.468750
9126		-101.562500
9127		-105.468750
9128		-103.515625
9129		-105.468750
9130		-101.562500
9131		-105.468750
9132		-101.562500
9133		-103.515625
9134		-101.562500
9135		-103.515625
9136		-99.609375
9137		-101.562500
9138		-99.609375
9139		-101.562500
9140		-99.609375
9141		-101.562500
9142		-97.656250
9143		-99.609375
9144		-97.656250
9145		-97.656250
9146		-95.703125
9147		-99.609375
9148		-93.750000
9149		-97.656250
9150		-93.750000
9151		-95.703125
9152		-91.796875
9153		-93.750000
9154		-89.843750
9155		-93.750000
9156		-89.843750
9157		-91.796875
9158		-87.890625
9159		-91.796875
9160		-85.937500
9161		-87.890625
9162		-83.984375
9163		-85.937500
9164		-82.031250
9165		-85.937500
9166		-80.078125
9167		-82.031250
9168		-78.125000
9169		-80.078125
9170		-76.171875
9171		-78.125000
9172		-74.218750
9173		-78.125000
9174		-72.265625
9175		-76.171875
9176		-70.312500
9177		-72.265625
9178		-68.359375
9179		-70.312500
9180		-66.406250
9181		-68.359375
9182		-62.500000
9183		-66.406250
9184		-62.500000
9185		-64.453125
9186		-58.593750
9187		-60.546875
9188		-56.640625
9189		-58.593750
9190		-54.687500
9191		-56.640625
9192		-50.781250
9193		-52.734375
9194		-48.828125
9195		-50.781250
9196		-46.875000
9197		-48.828125
9198		-42.968750
9199		-44.921875
9200		-41.015625
9201		-42.968750
9202		-39.062500
9203		-39.062500
9204		-35.156250
9205		-37.109375
9206		-33.203125
9207		-35.156250
9208		-29.296875
9209		-33.203125
9210		-27.343750
9211		-29.296875
9212		-25.390625
9213		-27.343750
9214		-21.484375
9215		-23.437500
9216		-19.531250
9217		-21.484375
9218		-15.625000
9219		-17.578125
9220		-13.671875
9221		-15.625000
9222		-9.765625
9223		-11.718750
9224		-7.812500
9225		-9.765625
9226		-3.906250
9227		-5.859375
9228		-1.953125
9229		-3.906250
9230		1.953125
9231		0.000000
9232		3.906250
9233		1.953125
9234		7.812500
9235		5.859375
9236		9.765625
9237		7.812500
9238		13.671875
9239		11.718750
9240		15.625000
9241		13.671875
9242		17.578125
9243		15.625000
9244		21.484375
9245		19.531250
9246		23.437500
9247		21.484375
9248		27.343750
9249		25.390625
9250		29.296875
9251		27.343750
9252		31.250000
9253		29.296875
9254		35.156250
9255		33.203125
9256		37.109375
9257		35.156250
9258		41.015625
9259		39.062500
9260		42.968750
9261		41.015625
9262		44.921875
9263		42.968750
9264		48.828125
9265		44.921875
9266		50.781250
9267		46.875000
9268		52.734375
9269		50.781250
9270		54.687500
9271		52.734375
9272		56.640625
9273		54.687500
9274		58.593750
9275		56.640625
9276		62.500000
9277		60.546875
9278		64.453125
9279		62.500000
9280		66.406250
9281		64.453125
9282		68.359375
9283		66.406250
9284		70.312500
9285		68.359375
9286		72.265625
9287		70.312500
9288		74.218750
9289		72.265625
9290		78.125000
9291		74.218750
9292		80.078125
9293		74.218750
9294		80.078125
9295		78.125000
9296		82.031250
9297		80.078125
9298		83.984375
9299		82.031250
9300		85.937500
9301		83.984375
9302		87.890625
9303		85.937500
9304		87.890625
9305		85.937500
9306		91.796875
9307		87.890625
9308		91.796875
9309		87.890625
9310		93.750000
9311		91.796875
9312		93.750000
9313		91.796875
9314		95.703125
9315		93.750000
9316		97.656250
9317		93.750000
9318		97.656250
9319		95.703125
9320		99.609375
9321		95.703125
9322		101.562500
9323		97.656250
9324		101.562500
9325		97.656250
9326		103.515625
9327		99.609375
9328		103.515625
9329		101.562500
9330		103.515625
9331		101.562500
9332		105.468750
9333		103.515625
9334		105.468750
9335		101.562500
9336		107.421875
9337		101.562500
9338		107.421875
9339		101.562500
9340		109.375000
9341		103.515625
9342		109.375000
9343		103.515625
9344		109.375000
9345		105.468750
9346		107.421875
9347		105.468750
9348		109.375000
9349		105.468750
9350		111.328125
9351		103.515625
9352		111.328125
9353		105.468750
9354		111.328125
9355		105.468750
9356		111.328125
9357		105.468750
9358		111.328125
9359		105.468750
9360		111.328125
9361		107.421875
9362		109.375000
9363		105.468750
9364		109.375000
9365		103.515625
9366		109.375000
9367		103.515625
9368		109.375000
9369		103.515625
9370		109.375000
9371		103.515625
9372		109.375000
9373		103.515625
9374		109.375000
9375		101.562500
9376		107.421875
9377		101.562500
9378		107.421875
9379		103.515625
9380		105.468750
9381		99.609375
9382		105.468750
9383		99.609375
9384		105.468750
9385		97.656250
9386		105.468750
9387		97.656250
9388		103.515625
9389		95.703125
9390		103.515625
9391		95.703125
9392		101.562500
9393		93.750000
9394		101.562500
9395		95.703125
9396		97.656250
9397		93.750000
9398		95.703125
9399		89.843750
9400		95.703125
9401		89.843750
9402		95.703125
9403		87.890625
9404		93.750000
9405		85.937500
9406		93.750000
9407		83.984375
9408		91.796875
9409		82.031250
9410		89.843750
9411		83.984375
9412		85.937500
9413		82.031250
9414		83.984375
9415		78.125000
9416		83.984375
9417		76.171875
9418		82.031250
9419		74.218750
9420		80.078125
9421		72.265625
9422		78.125000
9423		70.312500
9424		76.171875
9425		68.359375
9426		74.218750
9427		66.406250
9428		72.265625
9429		66.406250
9430		68.359375
9431		62.500000
9432		66.406250
9433		60.546875
9434		66.406250
9435		56.640625
9436		64.453125
9437		54.687500
9438		60.546875
9439		52.734375
9440		58.593750
9441		48.828125
9442		56.640625
9443		46.875000
9444		54.687500
9445		46.875000
9446		50.781250
9447		44.921875
9448		46.875000
9449		39.062500
9450		44.921875
9451		37.109375
9452		44.921875
9453		35.156250
9454		42.968750
9455		31.250000
9456		39.062500
9457		27.343750
9458		37.109375
9459		25.390625
9460		35.156250
9461		25.390625
9462		31.250000
9463		21.484375
9464		27.343750
9465		17.578125
9466		23.437500
9467		15.625000
9468		21.484375
9469		11.718750
9470		19.531250
9471		7.812500
9472		17.578125
9473		5.859375
9474		13.671875
9475		3.906250
9476		11.718750
9477		1.953125
9478		7.812500
9479		0.000000
9480		3.906250
9481		-3.906250
9482		1.953125
9483		-7.812500
9484		0.000000
9485		-11.718750
9486		-1.953125
9487		-13.671875
9488		-5.859375
9489		-15.625000
9490		-9.765625
9491		-19.531250
9492		-11.718750
9493		-21.484375
9494		-13.671875
9495		-23.437500
9496		-19.531250
9497		-27.343750
9498		-21.484375
9499		-31.250000
9500		-23.437500
9501		-35.156250
9502		-25.390625
9503		-37.109375
9504		-29.296875
9505		-39.062500
9506		-31.250000
9507		-42.968750
9508		-33.203125
9509		-44.921875
9510		-37.109375
9511		-46.875000
9512		-39.062500
9513		-46.875000
9514		-44.921875
9515		-50.781250
9516		-46.875000
9517		-56.640625
9518		-46.875000
9519		-58.593750
9520		-50.781250
9521		-60.546875
9522		-50.781250
9523		-62.500000
9524		-54.687500
9525		-64.453125
9526		-56.640625
9527		-66.406250
9528		-60.546875
9529		-68.359375
9530		-62.500000
9531		-70.312500
9532		-66.406250
9533		-74.218750
9534		-68.359375
9535		-76.171875
9536		-68.359375
9537		-78.125000
9538		-70.312500
9539		-80.078125
9540		-72.265625
9541		-82.031250
9542		-74.218750
9543		-83.984375
9544		-76.171875
9545		-83.984375
9546		-78.125000
9547		-85.937500
9548		-82.031250
9549		-89.843750
9550		-82.031250
9551		-89.843750
9552		-82.031250
9553		-91.796875
9554		-85.937500
9555		-93.750000
9556		-85.937500
9557		-93.750000
9558		-87.890625
9559		-95.703125
9560		-89.843750
9561		-97.656250
9562		-89.843750
9563		-95.703125
9564		-93.750000
9565		-97.656250
9566		-95.703125
9567		-99.609375
9568		-93.750000
9569		-101.562500
9570		-95.703125
9571		-103.515625
9572		-95.703125
9573		-103.515625
9574		-95.703125
9575		-103.515625
9576		-97.656250
9577		-105.468750
9578		-97.656250
9579		-103.515625
9580		-99.609375
9581		-103.515625
9582		-101.562500
9583		-105.468750
9584		-99.609375
9585		-107.421875
9586		-99.609375
9587		-107.421875
9588		-99.609375
9589		-107.421875
9590		-99.609375
9591		-105.468750
9592		-99.609375
9593		-107.421875
9594		-99.609375
9595		-107.421875
9596		-99.609375
9597		-103.515625
9598		-101.562500
9599		-105.468750
9600		-101.562500
9601		-105.468750
9602		-99.609375
9603		-105.468750
9604		-99.609375
9605		-105.468750
9606		-97.656250
9607		-103.515625
9608		-97.656250
9609		-103.515625
9610		-95.703125
9611		-103.515625
9612		-95.703125
9613		-99.609375
9614		-97.656250
9615		-97.656250
9616		-95.703125
9617		-99.609375
9618		-93.750000
9619		-99.609375
9620		-91.796875
9621		-97.656250
9622		-89.843750
9623		-95.703125
9624		-89.843750
9625		-95.703125
9626		-87.890625
9627		-93.750000
9628		-85.937500
9629		-91.796875
9630		-85.937500
9631		-87.890625
9632		-85.937500
9633		-87.890625
9634		-80.078125
9635		-87.890625
9636		-80.078125
9637		-85.937500
9638		-78.125000
9639		-83.984375
9640		-76.171875
9641		-82.031250
9642		-74.218750
9643		-80.078125
9644		-72.265625
9645		-78.125000
9646		-70.312500
9647		-74.218750
9648		-70.312500
9649		-70.312500
9650		-66.406250
9651		-70.312500
9652		-62.500000
9653		-68.359375
9654		-60.546875
9655		-64.453125
9656		-58.593750
9657		-64.453125
9658		-56.640625
9659		-60.546875
9660		-54.687500
9661		-58.593750
9662		-50.781250
9663		-54.687500
9664		-50.781250
9665		-50.781250
9666		-46.875000
9667		-48.828125
9668		-42.968750
9669		-48.828125
9670		-41.015625
9671		-44.921875
9672		-37.109375
9673		-42.968750
9674		-35.156250
9675		-41.015625
9676		-33.203125
9677		-37.109375
9678		-29.296875
9679		-35.156250
9680		-27.343750
9681		-29.296875
9682		-25.390625
9683		-27.343750
9684		-23.437500
9685		-25.390625
9686		-19.531250
9687		-23.437500
9688		-15.625000
9689		-21.484375
9690		-11.718750
9691		-17.578125
9692		-9.765625
9693		-13.671875
9694		-7.812500
9695		-11.718750
9696		-3.906250
9697		-7.812500
9698		-1.953125
9699		-3.906250
9700		0.000000
9701		-1.953125
9702		3.906250
9703		0.000000
9704		7.812500
9705		1.953125
9706		9.765625
9707		5.859375
9708		13.671875
9709		9.765625
9710		15.625000
9711		9.765625
9712		19.531250
9713		13.671875
9714		19.531250
9715		17.578125
9716		23.437500
9717		21.484375
9718		27.343750
9719		21.484375
9720		29.296875
9721		23.437500
9722		33.203125
9723		27.343750
9724		35.156250
9725		29.296875
9726		37.109375
9727		31.250000
9728		41.015625
9729		35.156250
9730		41.015625
9731		39.062500
9732		42.968750
9733		42.968750
9734		46.875000
9735		42.968750
9736		50.781250
9737		44.921875
9738		52.734375
9739		48.828125
9740		54.687500
9741		50.781250
9742		56.640625
9743		52.734375
9744		60.546875
9745		54.687500
9746		62.500000
9747		56.640625
9748		62.500000
9749		60.546875
9750		64.453125
9751		62.500000
9752		68.359375
9753		64.453125
9754		72.265625
9755		66.406250
9756		72.265625
9757		68.359375
9758		74.218750
9759		68.359375
9760		76.171875
9761		72.265625
9762		80.078125
9763		74.218750
9764		80.078125
9765		78.125000
9766		82.031250
9767		80.078125
9768		82.031250
9769		78.125000
9770		85.937500
9771		80.078125
9772		87.890625
9773		82.031250
9774		89.843750
9775		83.984375
9776		89.843750
9777		85.937500
9778		91.796875
9779		85.937500
9780		93.750000
9781		89.843750
9782		93.750000
9783		91.796875
9784		95.703125
9785		91.796875
9786		99.609375
9787		91.796875
9788		99.609375
9789		93.750000
9790		99.609375
9791		93.750000
9792		101.562500
9793		95.703125
9794		103.515625
9795		97.656250
9796		103.515625
9797		97.656250
9798		103.515625
9799		99.609375
9800		103.515625
9801		101.562500
9802		105.468750
9803		99.609375
9804		107.421875
9805		101.562500
9806		107.421875
9807		101.562500
9808		107.421875
9809		101.562500
9810		109.375000
9811		103.515625
9812		109.375000
9813		103.515625
9814		109.375000
9815		105.468750
9816		107.421875
9817		105.468750
9818		109.375000
9819		103.515625
9820		111.328125
9821		105.468750
9822		111.328125
9823		105.468750
9824		111.328125
9825		105.468750
9826		111.328125
9827		105.468750
9828		111.328125
9829		103.515625
9830		111.328125
9831		105.468750
9832		111.328125
9833		107.421875
9834		109.375000
9835		105.468750
9836		111.328125
9837		103.515625
9838		111.328125
9839		103.515625
9840		111.328125
9841		103.515625
9842		109.375000
9843		103.515625
9844		109.375000
9845		103.515625
9846		109.375000
9847		101.562500
9848		109.375000
9849		103.515625
9850		105.468750
9851		103.515625
9852		105.468750
9853		99.609375
9854		105.468750
9855		99.609375
9856		105.468750
9857		97.656250
9858		103.515625
9859		97.656250
9860		103.515625
9861		95.703125
9862		101.562500
9863		95.703125
9864		101.562500
9865		95.703125
9866		99.609375
9867		93.750000
9868		97.656250
9869		91.796875
9870		97.656250
9871		89.843750
9872		97.656250
9873		87.890625
9874		95.703125
9875		87.890625
9876		93.750000
9877		85.937500
9878		91.796875
9879		83.984375
9880		89.843750
9881		83.984375
9882		89.843750
9883		82.031250
9884		85.937500
9885		80.078125
9886		83.984375
9887		76.171875
9888		83.984375
9889		74.218750
9890		82.031250
9891		74.218750
9892		80.078125
9893		70.312500
9894		78.125000
9895		70.312500
9896		76.171875
9897		68.359375
9898		74.218750
9899		66.406250
9900		70.312500
9901		64.453125
9902		68.359375
9903		60.546875
9904		66.406250
9905		58.593750
9906		66.406250
9907		56.640625
9908		62.500000
9909		52.734375
9910		60.546875
9911		50.781250
9912		58.593750
9913		48.828125
9914		56.640625
9915		48.828125
9916		52.734375
9917		44.921875
9918		48.828125
9919		41.015625
9920		46.875000
9921		39.062500
9922		44.921875
9923		37.109375
9924		42.968750
9925		33.203125
9926		41.015625
9927		29.296875
9928		39.062500
9929		27.343750
9930		35.156250
9931		25.390625
9932		33.203125
9933		23.437500
9934		29.296875
9935		21.484375
9936		25.390625
9937		17.578125
9938		23.437500
9939		15.625000
9940		21.484375
9941		11.718750
9942		19.531250
9943		7.812500
9944		15.625000
9945		5.859375
9946		13.671875
9947		1.953125
9948		11.718750
9949		1.953125
9950		5.859375
9951		-1.953125
9952		1.953125
9953		-5.859375
9954		0.000000
9955		-9.765625
9956		0.000000
9957		-11.718750
9958		-3.906250
9959		-15.625000
9960		-7.812500
9961		-17.578125
9962		-9.765625
9963		-21.484375
9964		-13.671875
9965		-21.484375
9966		-15.625000
9967		-25.390625
9968		-19.531250
9969		-29.296875
9970		-23.437500
9971		-31.250000
9972		-23.437500
9973		-35.156250
9974		-25.390625
9975		-37.109375
9976		-29.296875
9977		-41.015625
9978		-31.250000
9979		-42.968750
9980		-35.156250
9981		-44.921875
9982		-39.062500
9983		-46.875000
9984		-41.015625
9985		-48.828125
9986		-44.921875
9987		-52.734375
9988		-46.875000
9989		-56.640625
9990		-48.828125
9991		-58.593750
9992		-50.781250
9993		-60.546875
9994		-52.734375
9995		-62.500000
9996		-56.640625
9997		-66.406250
9998		-56.640625
9999		-66.406250
10000		-60.546875
