Channel              :		CH1
Frequency            :		1.975kHz
Period               :		0.506ms
PK-PK                :		210.9mV
Probe attenuation    :		1X
Voltage per ADC value:		0.122070mV
Time interval        :		2.00000us

index		CH1_Voltage(mV)
1		101.562500
2		101.562500
3		105.468750
4		99.609375
5		105.468750
6		101.562500
7		103.515625
8		99.609375
9		103.515625
10		99.609375
11		103.515625
12		97.656250
13		101.562500
14		95.703125
15		99.609375
16		95.703125
17		99.609375
18		93.750000
19		97.656250
20		89.843750
21		95.703125
22		89.843750
23		93.750000
24		87.890625
25		91.796875
26		83.984375
27		87.890625
28		82.031250
29		85.937500
30		78.125000
31		83.984375
32		74.218750
33		80.078125
34		72.265625
35		78.125000
36		68.359375
37		74.218750
38		64.453125
39		70.312500
40		60.546875
41		66.406250
42		56.640625
43		62.500000
44		52.734375
45		58.593750
46		48.828125
47		54.687500
48		44.921875
49		50.781250
50		39.062500
51		46.875000
52		35.156250
53		41.015625
54		31.250000
55		37.109375
56		25.390625
57		31.250000
58		19.531250
59		27.343750
60		15.625000
61		21.484375
62		9.765625
63		17.578125
64		5.859375
65		11.718750
66		0.000000
67		7.812500
68		-3.906250
69		1.953125
70		-9.765625
71		-3.906250
72		-13.671875
73		-7.812500
74		-19.531250
75		-13.671875
76		-23.437500
77		-17.578125
78		-29.296875
79		-23.437500
80		-33.203125
81		-27.343750
82		-39.062500
83		-33.203125
84		-42.968750
85		-37.109375
86		-48.828125
87		-42.968750
88		-52.734375
89		-46.875000
90		-56.640625
91		-50.781250
92		-60.546875
93		-54.687500
94		-64.453125
95		-58.593750
96		-68.359375
97		-64.453125
98		-72.265625
99		-66.406250
100		-76.171875
101		-70.312500
102		-78.125000
103		-74.218750
104		-82.031250
105		-78.125000
106		-83.984375
107		-78.125000
108		-87.890625
109		-82.031250
110		-89.843750
111		-83.984375
112		-91.796875
113		-87.890625
114		-93.750000
115		-89.843750
116		-95.703125
117		-91.796875
118		-95.703125
119		-91.796875
120		-95.703125
121		-93.750000
122		-97.656250
123		-93.750000
124		-97.656250
125		-93.750000
126		-97.656250
127		-95.703125
128		-97.656250
129		-95.703125
130		-97.656250
131		-93.750000
132		-97.656250
133		-93.750000
134		-97.656250
135		-93.750000
136		-95.703125
137		-91.796875
138		-93.750000
139		-89.843750
140		-93.750000
141		-87.890625
142		-89.843750
143		-87.890625
144		-89.843750
145		-83.984375
146		-85.937500
147		-82.031250
148		-83.984375
149		-78.125000
150		-82.031250
151		-76.171875
152		-78.125000
153		-72.265625
154		-74.218750
155		-70.312500
156		-72.265625
157		-66.406250
158		-66.406250
159		-60.546875
160		-64.453125
161		-58.593750
162		-58.593750
163		-52.734375
164		-54.687500
165		-48.828125
166		-50.781250
167		-44.921875
168		-46.875000
169		-41.015625
170		-41.015625
171		-35.156250
172		-37.109375
173		-31.250000
174		-33.203125
175		-27.343750
176		-27.343750
177		-21.484375
178		-23.437500
179		-15.625000
180		-17.578125
181		-11.718750
182		-13.671875
183		-5.859375
184		-7.812500
185		-1.953125
186		-1.953125
187		3.906250
188		1.953125
189		7.812500
190		5.859375
191		13.671875
192		11.718750
193		19.531250
194		17.578125
195		23.437500
196		23.437500
197		27.343750
198		27.343750
199		33.203125
200		31.250000
201		39.062500
202		37.109375
203		42.968750
204		41.015625
205		46.875000
206		44.921875
207		50.781250
208		50.781250
209		54.687500
210		54.687500
211		58.593750
212		56.640625
213		62.500000
214		62.500000
215		68.359375
216		66.406250
217		70.312500
218		68.359375
219		74.218750
220		72.265625
221		78.125000
222		76.171875
223		82.031250
224		78.125000
225		83.984375
226		82.031250
227		85.937500
228		83.984375
229		89.843750
230		87.890625
231		91.796875
232		89.843750
233		93.750000
234		91.796875
235		95.703125
236		93.750000
237		97.656250
238		95.703125
239		99.609375
240		95.703125
241		101.562500
242		99.609375
243		101.562500
244		99.609375
245		103.515625
246		101.562500
247		103.515625
248		101.562500
249		105.468750
250		101.562500
251		105.468750
252		101.562500
253		105.468750
254		103.515625
255		105.468750
256		101.562500
257		105.468750
258		101.562500
259		105.468750
260		101.562500
261		103.515625
262		99.609375
263		103.515625
264		99.609375
265		103.515625
266		97.656250
267		101.562500
268		95.703125
269		99.609375
270		95.703125
271		97.656250
272		93.750000
273		97.656250
274		91.796875
275		95.703125
276		87.890625
277		93.750000
278		85.937500
279		91.796875
280		83.984375
281		87.890625
282		80.078125
283		85.937500
284		78.125000
285		83.984375
286		74.218750
287		80.078125
288		72.265625
289		76.171875
290		68.359375
291		72.265625
292		62.500000
293		68.359375
294		60.546875
295		64.453125
296		56.640625
297		62.500000
298		52.734375
299		56.640625
300		46.875000
301		54.687500
302		42.968750
303		48.828125
304		39.062500
305		44.921875
306		33.203125
307		39.062500
308		29.296875
309		35.156250
310		23.437500
311		31.250000
312		19.531250
313		25.390625
314		13.671875
315		21.484375
316		9.765625
317		15.625000
318		3.906250
319		9.765625
320		0.000000
321		5.859375
322		-5.859375
323		0.000000
324		-11.718750
325		-3.906250
326		-15.625000
327		-9.765625
328		-21.484375
329		-13.671875
330		-25.390625
331		-19.531250
332		-31.250000
333		-25.390625
334		-37.109375
335		-29.296875
336		-41.015625
337		-33.203125
338		-44.921875
339		-39.062500
340		-48.828125
341		-42.968750
342		-52.734375
343		-48.828125
344		-58.593750
345		-52.734375
346		-62.500000
347		-56.640625
348		-66.406250
349		-60.546875
350		-70.312500
351		-64.453125
352		-72.265625
353		-68.359375
354		-76.171875
355		-72.265625
356		-80.078125
357		-74.218750
358		-82.031250
359		-78.125000
360		-85.937500
361		-80.078125
362		-87.890625
363		-83.984375
364		-89.843750
365		-85.937500
366		-91.796875
367		-87.890625
368		-93.750000
369		-89.843750
370		-93.750000
371		-89.843750
372		-95.703125
373		-93.750000
374		-97.656250
375		-93.750000
376		-97.656250
377		-93.750000
378		-97.656250
379		-93.750000
380		-97.656250
381		-95.703125
382		-97.656250
383		-95.703125
384		-97.656250
385		-93.750000
386		-97.656250
387		-93.750000
388		-95.703125
389		-91.796875
390		-93.750000
391		-91.796875
392		-93.750000
393		-89.843750
394		-91.796875
395		-87.890625
396		-89.843750
397		-85.937500
398		-87.890625
399		-83.984375
400		-85.937500
401		-80.078125
402		-82.031250
403		-78.125000
404		-80.078125
405		-76.171875
406		-76.171875
407		-72.265625
408		-74.218750
409		-68.359375
410		-70.312500
411		-64.453125
412		-66.406250
413		-60.546875
414		-62.500000
415		-56.640625
416		-58.593750
417		-52.734375
418		-54.687500
419		-48.828125
420		-50.781250
421		-42.968750
422		-44.921875
423		-39.062500
424		-41.015625
425		-33.203125
426		-35.156250
427		-29.296875
428		-31.250000
429		-23.437500
430		-25.390625
431		-19.531250
432		-21.484375
433		-15.625000
434		-15.625000
435		-9.765625
436		-11.718750
437		-5.859375
438		-5.859375
439		0.000000
440		-1.953125
441		5.859375
442		3.906250
443		9.765625
444		9.765625
445		15.625000
446		13.671875
447		19.531250
448		19.531250
449		25.390625
450		23.437500
451		29.296875
452		29.296875
453		35.156250
454		33.203125
455		39.062500
456		37.109375
457		44.921875
458		42.968750
459		48.828125
460		46.875000
461		52.734375
462		50.781250
463		56.640625
464		54.687500
465		60.546875
466		58.593750
467		64.453125
468		62.500000
469		68.359375
470		66.406250
471		72.265625
472		70.312500
473		76.171875
474		74.218750
475		80.078125
476		76.171875
477		82.031250
478		80.078125
479		83.984375
480		82.031250
481		87.890625
482		85.937500
483		89.843750
484		87.890625
485		91.796875
486		89.843750
487		95.703125
488		91.796875
489		95.703125
490		93.750000
491		97.656250
492		95.703125
493		99.609375
494		97.656250
495		101.562500
496		99.609375
497		103.515625
498		99.609375
499		103.515625
500		99.609375
501		105.468750
502		101.562500
503		105.468750
504		101.562500
505		105.468750
506		101.562500
507		105.468750
508		101.562500
509		105.468750
510		101.562500
511		105.468750
512		101.562500
513		105.468750
514		101.562500
515		103.515625
516		99.609375
517		103.515625
518		99.609375
519		103.515625
520		97.656250
521		101.562500
522		95.703125
523		99.609375
524		93.750000
525		97.656250
526		91.796875
527		97.656250
528		89.843750
529		93.750000
530		87.890625
531		91.796875
532		85.937500
533		89.843750
534		82.031250
535		85.937500
536		80.078125
537		83.984375
538		76.171875
539		82.031250
540		74.218750
541		78.125000
542		70.312500
543		74.218750
544		66.406250
545		72.265625
546		62.500000
547		68.359375
548		58.593750
549		64.453125
550		54.687500
551		60.546875
552		50.781250
553		56.640625
554		46.875000
555		50.781250
556		41.015625
557		46.875000
558		35.156250
559		42.968750
560		31.250000
561		37.109375
562		27.343750
563		33.203125
564		21.484375
565		29.296875
566		17.578125
567		23.437500
568		11.718750
569		19.531250
570		7.812500
571		13.671875
572		1.953125
573		7.812500
574		-1.953125
575		3.906250
576		-7.812500
577		-1.953125
578		-13.671875
579		-5.859375
580		-17.578125
581		-11.718750
582		-23.437500
583		-15.625000
584		-27.343750
585		-21.484375
586		-33.203125
587		-25.390625
588		-37.109375
589		-31.250000
590		-42.968750
591		-35.156250
592		-46.875000
593		-41.015625
594		-50.781250
595		-44.921875
596		-54.687500
597		-50.781250
598		-60.546875
599		-54.687500
600		-64.453125
601		-58.593750
602		-68.359375
603		-62.500000
604		-72.265625
605		-64.453125
606		-74.218750
607		-70.312500
608		-78.125000
609		-72.265625
610		-80.078125
611		-76.171875
612		-83.984375
613		-80.078125
614		-85.937500
615		-82.031250
616		-87.890625
617		-83.984375
618		-89.843750
619		-87.890625
620		-91.796875
621		-87.890625
622		-93.750000
623		-89.843750
624		-95.703125
625		-91.796875
626		-97.656250
627		-93.750000
628		-97.656250
629		-93.750000
630		-97.656250
631		-93.750000
632		-97.656250
633		-95.703125
634		-97.656250
635		-95.703125
636		-99.609375
637		-95.703125
638		-97.656250
639		-93.750000
640		-95.703125
641		-93.750000
642		-95.703125
643		-91.796875
644		-95.703125
645		-91.796875
646		-93.750000
647		-87.890625
648		-91.796875
649		-87.890625
650		-89.843750
651		-85.937500
652		-87.890625
653		-82.031250
654		-83.984375
655		-80.078125
656		-82.031250
657		-76.171875
658		-78.125000
659		-74.218750
660		-76.171875
661		-70.312500
662		-72.265625
663		-68.359375
664		-68.359375
665		-62.500000
666		-64.453125
667		-60.546875
668		-60.546875
669		-54.687500
670		-56.640625
671		-50.781250
672		-52.734375
673		-46.875000
674		-48.828125
675		-42.968750
676		-42.968750
677		-37.109375
678		-39.062500
679		-33.203125
680		-35.156250
681		-27.343750
682		-29.296875
683		-23.437500
684		-25.390625
685		-17.578125
686		-19.531250
687		-13.671875
688		-13.671875
689		-7.812500
690		-9.765625
691		-1.953125
692		-3.906250
693		1.953125
694		0.000000
695		7.812500
696		5.859375
697		11.718750
698		9.765625
699		17.578125
700		15.625000
701		21.484375
702		19.531250
703		27.343750
704		25.390625
705		31.250000
706		29.296875
707		35.156250
708		35.156250
709		41.015625
710		39.062500
711		44.921875
712		42.968750
713		50.781250
714		46.875000
715		52.734375
716		52.734375
717		58.593750
718		56.640625
719		62.500000
720		60.546875
721		66.406250
722		64.453125
723		68.359375
724		68.359375
725		72.265625
726		72.265625
727		76.171875
728		74.218750
729		80.078125
730		78.125000
731		82.031250
732		80.078125
733		85.937500
734		83.984375
735		87.890625
736		85.937500
737		89.843750
738		87.890625
739		93.750000
740		91.796875
741		93.750000
742		93.750000
743		95.703125
744		95.703125
745		97.656250
746		95.703125
747		99.609375
748		97.656250
749		101.562500
750		99.609375
751		101.562500
752		99.609375
753		103.515625
754		101.562500
755		103.515625
756		101.562500
757		105.468750
758		101.562500
759		103.515625
760		101.562500
761		105.468750
762		101.562500
763		105.468750
764		99.609375
765		107.421875
766		99.609375
767		105.468750
768		99.609375
769		103.515625
770		99.609375
771		101.562500
772		97.656250
773		101.562500
774		97.656250
775		99.609375
776		95.703125
777		97.656250
778		93.750000
779		97.656250
780		89.843750
781		95.703125
782		87.890625
783		95.703125
784		85.937500
785		89.843750
786		83.984375
787		89.843750
788		80.078125
789		85.937500
790		78.125000
791		83.984375
792		76.171875
793		80.078125
794		70.312500
795		76.171875
796		66.406250
797		74.218750
798		62.500000
799		72.265625
800		58.593750
801		68.359375
802		56.640625
803		62.500000
804		50.781250
805		58.593750
806		48.828125
807		54.687500
808		42.968750
809		48.828125
810		39.062500
811		44.921875
812		33.203125
813		41.015625
814		29.296875
815		37.109375
816		23.437500
817		33.203125
818		19.531250
819		29.296875
820		15.625000
821		21.484375
822		7.812500
823		15.625000
824		5.859375
825		11.718750
826		0.000000
827		5.859375
828		-5.859375
829		1.953125
830		-11.718750
831		-1.953125
832		-17.578125
833		-5.859375
834		-21.484375
835		-11.718750
836		-27.343750
837		-17.578125
838		-31.250000
839		-21.484375
840		-35.156250
841		-27.343750
842		-39.062500
843		-33.203125
844		-44.921875
845		-39.062500
846		-50.781250
847		-41.015625
848		-54.687500
849		-44.921875
850		-58.593750
851		-48.828125
852		-64.453125
853		-54.687500
854		-68.359375
855		-58.593750
856		-70.312500
857		-62.500000
858		-72.265625
859		-68.359375
860		-76.171875
861		-72.265625
862		-82.031250
863		-74.218750
864		-85.937500
865		-76.171875
866		-87.890625
867		-78.125000
868		-89.843750
869		-80.078125
870		-91.796875
871		-83.984375
872		-93.750000
873		-85.937500
874		-95.703125
875		-89.843750
876		-95.703125
877		-91.796875
878		-97.656250
879		-91.796875
880		-99.609375
881		-93.750000
882		-99.609375
883		-93.750000
884		-101.562500
885		-93.750000
886		-99.609375
887		-93.750000
888		-101.562500
889		-93.750000
890		-101.562500
891		-93.750000
892		-97.656250
893		-95.703125
894		-97.656250
895		-93.750000
896		-97.656250
897		-91.796875
898		-97.656250
899		-89.843750
900		-95.703125
901		-87.890625
902		-93.750000
903		-85.937500
904		-91.796875
905		-83.984375
906		-89.843750
907		-82.031250
908		-85.937500
909		-80.078125
910		-82.031250
911		-78.125000
912		-78.125000
913		-72.265625
914		-76.171875
915		-68.359375
916		-74.218750
917		-64.453125
918		-70.312500
919		-62.500000
920		-66.406250
921		-56.640625
922		-60.546875
923		-52.734375
924		-58.593750
925		-50.781250
926		-52.734375
927		-46.875000
928		-46.875000
929		-41.015625
930		-42.968750
931		-35.156250
932		-39.062500
933		-31.250000
934		-35.156250
935		-25.390625
936		-29.296875
937		-21.484375
938		-25.390625
939		-17.578125
940		-19.531250
941		-11.718750
942		-13.671875
943		-7.812500
944		-7.812500
945		-1.953125
946		-3.906250
947		3.906250
948		0.000000
949		9.765625
950		3.906250
951		15.625000
952		9.765625
953		19.531250
954		13.671875
955		25.390625
956		19.531250
957		29.296875
958		23.437500
959		33.203125
960		31.250000
961		37.109375
962		35.156250
963		42.968750
964		39.062500
965		48.828125
966		42.968750
967		52.734375
968		46.875000
969		56.640625
970		50.781250
971		60.546875
972		54.687500
973		64.453125
974		58.593750
975		66.406250
976		64.453125
977		70.312500
978		68.359375
979		72.265625
980		70.312500
981		78.125000
982		74.218750
983		82.031250
984		76.171875
985		83.984375
986		78.125000
987		87.890625
988		82.031250
989		89.843750
990		83.984375
991		91.796875
992		87.890625
993		91.796875
994		91.796875
995		95.703125
996		91.796875
997		99.609375
998		91.796875
999		99.609375
1000		93.750000
1001		101.562500
1002		95.703125
1003		103.515625
1004		95.703125
1005		103.515625
1006		97.656250
1007		105.468750
1008		97.656250
1009		105.468750
1010		101.562500
1011		103.515625
1012		99.609375
1013		105.468750
1014		99.609375
1015		105.468750
1016		99.609375
1017		105.468750
1018		99.609375
1019		105.468750
1020		97.656250
1021		105.468750
1022		97.656250
1023		105.468750
1024		95.703125
1025		103.515625
1026		97.656250
1027		99.609375
1028		95.703125
1029		99.609375
1030		91.796875
1031		99.609375
1032		89.843750
1033		97.656250
1034		87.890625
1035		95.703125
1036		85.937500
1037		93.750000
1038		83.984375
1039		91.796875
1040		80.078125
1041		89.843750
1042		80.078125
1043		85.937500
1044		76.171875
1045		82.031250
1046		70.312500
1047		78.125000
1048		68.359375
1049		78.125000
1050		64.453125
1051		74.218750
1052		60.546875
1053		70.312500
1054		56.640625
1055		66.406250
1056		52.734375
1057		62.500000
1058		48.828125
1059		58.593750
1060		46.875000
1061		52.734375
1062		42.968750
1063		46.875000
1064		35.156250
1065		44.921875
1066		31.250000
1067		41.015625
1068		25.390625
1069		35.156250
1070		21.484375
1071		31.250000
1072		15.625000
1073		27.343750
1074		11.718750
1075		21.484375
1076		7.812500
1077		15.625000
1078		3.906250
1079		9.765625
1080		-3.906250
1081		3.906250
1082		-9.765625
1083		1.953125
1084		-13.671875
1085		-3.906250
1086		-19.531250
1087		-9.765625
1088		-23.437500
1089		-13.671875
1090		-29.296875
1091		-19.531250
1092		-31.250000
1093		-23.437500
1094		-37.109375
1095		-31.250000
1096		-42.968750
1097		-35.156250
1098		-48.828125
1099		-39.062500
1100		-52.734375
1101		-42.968750
1102		-56.640625
1103		-46.875000
1104		-62.500000
1105		-50.781250
1106		-64.453125
1107		-54.687500
1108		-68.359375
1109		-60.546875
1110		-70.312500
1111		-66.406250
1112		-74.218750
1113		-70.312500
1114		-80.078125
1115		-72.265625
1116		-83.984375
1117		-74.218750
1118		-85.937500
1119		-78.125000
1120		-89.843750
1121		-80.078125
1122		-91.796875
1123		-82.031250
1124		-93.750000
1125		-85.937500
1126		-93.750000
1127		-87.890625
1128		-93.750000
1129		-91.796875
1130		-99.609375
1131		-91.796875
1132		-99.609375
1133		-91.796875
1134		-99.609375
1135		-93.750000
1136		-101.562500
1137		-93.750000
1138		-101.562500
1139		-93.750000
1140		-101.562500
1141		-93.750000
1142		-101.562500
1143		-93.750000
1144		-97.656250
1145		-95.703125
1146		-97.656250
1147		-95.703125
1148		-99.609375
1149		-91.796875
1150		-97.656250
1151		-91.796875
1152		-97.656250
1153		-89.843750
1154		-95.703125
1155		-87.890625
1156		-93.750000
1157		-85.937500
1158		-91.796875
1159		-83.984375
1160		-87.890625
1161		-82.031250
1162		-83.984375
1163		-80.078125
1164		-82.031250
1165		-74.218750
1166		-80.078125
1167		-70.312500
1168		-78.125000
1169		-68.359375
1170		-74.218750
1171		-64.453125
1172		-70.312500
1173		-60.546875
1174		-64.453125
1175		-56.640625
1176		-60.546875
1177		-52.734375
1178		-54.687500
1179		-48.828125
1180		-50.781250
1181		-42.968750
1182		-48.828125
1183		-37.109375
1184		-44.921875
1185		-33.203125
1186		-39.062500
1187		-29.296875
1188		-33.203125
1189		-23.437500
1190		-29.296875
1191		-19.531250
1192		-25.390625
1193		-15.625000
1194		-17.578125
1195		-11.718750
1196		-11.718750
1197		-5.859375
1198		-7.812500
1199		0.000000
1200		-5.859375
1201		5.859375
1202		0.000000
1203		11.718750
1204		5.859375
1205		15.625000
1206		9.765625
1207		21.484375
1208		15.625000
1209		27.343750
1210		21.484375
1211		29.296875
1212		27.343750
1213		33.203125
1214		31.250000
1215		41.015625
1216		35.156250
1217		44.921875
1218		39.062500
1219		48.828125
1220		44.921875
1221		52.734375
1222		48.828125
1223		56.640625
1224		52.734375
1225		62.500000
1226		54.687500
1227		64.453125
1228		62.500000
1229		66.406250
1230		66.406250
1231		70.312500
1232		68.359375
1233		76.171875
1234		70.312500
1235		80.078125
1236		74.218750
1237		82.031250
1238		76.171875
1239		85.937500
1240		80.078125
1241		87.890625
1242		82.031250
1243		89.843750
1244		85.937500
1245		91.796875
1246		89.843750
1247		93.750000
1248		89.843750
1249		97.656250
1250		91.796875
1251		99.609375
1252		93.750000
1253		101.562500
1254		93.750000
1255		101.562500
1256		95.703125
1257		103.515625
1258		95.703125
1259		103.515625
1260		97.656250
1261		105.468750
1262		101.562500
1263		103.515625
1264		99.609375
1265		105.468750
1266		99.609375
1267		105.468750
1268		99.609375
1269		105.468750
1270		97.656250
1271		105.468750
1272		97.656250
1273		105.468750
1274		97.656250
1275		105.468750
1276		97.656250
1277		103.515625
1278		97.656250
1279		101.562500
1280		97.656250
1281		99.609375
1282		91.796875
1283		99.609375
1284		89.843750
1285		99.609375
1286		89.843750
1287		97.656250
1288		87.890625
1289		95.703125
1290		83.984375
1291		93.750000
1292		82.031250
1293		89.843750
1294		82.031250
1295		87.890625
1296		78.125000
1297		82.031250
1298		74.218750
1299		80.078125
1300		70.312500
1301		80.078125
1302		66.406250
1303		76.171875
1304		62.500000
1305		72.265625
1306		58.593750
1307		68.359375
1308		54.687500
1309		64.453125
1310		52.734375
1311		60.546875
1312		48.828125
1313		54.687500
1314		44.921875
1315		50.781250
1316		37.109375
1317		46.875000
1318		33.203125
1319		42.968750
1320		29.296875
1321		39.062500
1322		23.437500
1323		35.156250
1324		19.531250
1325		29.296875
1326		13.671875
1327		23.437500
1328		11.718750
1329		19.531250
1330		5.859375
1331		11.718750
1332		-1.953125
1333		7.812500
1334		-5.859375
1335		3.906250
1336		-9.765625
1337		0.000000
1338		-15.625000
1339		-5.859375
1340		-21.484375
1341		-11.718750
1342		-27.343750
1343		-15.625000
1344		-29.296875
1345		-21.484375
1346		-33.203125
1347		-27.343750
1348		-39.062500
1349		-33.203125
1350		-44.921875
1351		-35.156250
1352		-50.781250
1353		-41.015625
1354		-54.687500
1355		-44.921875
1356		-58.593750
1357		-48.828125
1358		-64.453125
1359		-52.734375
1360		-66.406250
1361		-58.593750
1362		-68.359375
1363		-64.453125
1364		-72.265625
1365		-68.359375
1366		-78.125000
1367		-70.312500
1368		-82.031250
1369		-72.265625
1370		-83.984375
1371		-76.171875
1372		-87.890625
1373		-78.125000
1374		-89.843750
1375		-82.031250
1376		-91.796875
1377		-83.984375
1378		-93.750000
1379		-85.937500
1380		-93.750000
1381		-89.843750
1382		-97.656250
1383		-91.796875
1384		-99.609375
1385		-91.796875
1386		-99.609375
1387		-93.750000
1388		-101.562500
1389		-93.750000
1390		-101.562500
1391		-93.750000
1392		-101.562500
1393		-95.703125
1394		-101.562500
1395		-95.703125
1396		-99.609375
1397		-97.656250
1398		-99.609375
1399		-95.703125
1400		-101.562500
1401		-93.750000
1402		-99.609375
1403		-91.796875
1404		-99.609375
1405		-91.796875
1406		-97.656250
1407		-89.843750
1408		-95.703125
1409		-87.890625
1410		-93.750000
1411		-85.937500
1412		-89.843750
1413		-83.984375
1414		-85.937500
1415		-82.031250
1416		-83.984375
1417		-78.125000
1418		-82.031250
1419		-74.218750
1420		-80.078125
1421		-70.312500
1422		-78.125000
1423		-66.406250
1424		-72.265625
1425		-64.453125
1426		-68.359375
1427		-60.546875
1428		-64.453125
1429		-56.640625
1430		-58.593750
1431		-52.734375
1432		-54.687500
1433		-48.828125
1434		-52.734375
1435		-41.015625
1436		-46.875000
1437		-37.109375
1438		-42.968750
1439		-33.203125
1440		-37.109375
1441		-27.343750
1442		-33.203125
1443		-23.437500
1444		-27.343750
1445		-17.578125
1446		-21.484375
1447		-15.625000
1448		-15.625000
1449		-9.765625
1450		-11.718750
1451		-1.953125
1452		-7.812500
1453		1.953125
1454		-3.906250
1455		7.812500
1456		1.953125
1457		11.718750
1458		5.859375
1459		17.578125
1460		11.718750
1461		21.484375
1462		17.578125
1463		25.390625
1464		23.437500
1465		29.296875
1466		29.296875
1467		37.109375
1468		31.250000
1469		41.015625
1470		37.109375
1471		44.921875
1472		41.015625
1473		50.781250
1474		44.921875
1475		54.687500
1476		48.828125
1477		58.593750
1478		52.734375
1479		60.546875
1480		58.593750
1481		64.453125
1482		62.500000
1483		68.359375
1484		66.406250
1485		74.218750
1486		68.359375
1487		76.171875
1488		72.265625
1489		80.078125
1490		74.218750
1491		83.984375
1492		78.125000
1493		85.937500
1494		80.078125
1495		87.890625
1496		82.031250
1497		89.843750
1498		87.890625
1499		91.796875
1500		89.843750
1501		95.703125
1502		89.843750
1503		97.656250
1504		91.796875
1505		99.609375
1506		93.750000
1507		101.562500
1508		93.750000
1509		101.562500
1510		95.703125
1511		103.515625
1512		95.703125
1513		103.515625
1514		99.609375
1515		101.562500
1516		101.562500
1517		103.515625
1518		99.609375
1519		105.468750
1520		99.609375
1521		105.468750
1522		97.656250
1523		105.468750
1524		97.656250
1525		105.468750
1526		97.656250
1527		105.468750
1528		97.656250
1529		105.468750
1530		97.656250
1531		101.562500
1532		97.656250
1533		99.609375
1534		93.750000
1535		99.609375
1536		91.796875
1537		99.609375
1538		89.843750
1539		97.656250
1540		87.890625
1541		95.703125
1542		85.937500
1543		93.750000
1544		83.984375
1545		91.796875
1546		82.031250
1547		89.843750
1548		80.078125
1549		83.984375
1550		74.218750
1551		82.031250
1552		70.312500
1553		80.078125
1554		68.359375
1555		78.125000
1556		64.453125
1557		74.218750
1558		60.546875
1559		70.312500
1560		56.640625
1561		66.406250
1562		54.687500
1563		62.500000
1564		50.781250
1565		56.640625
1566		46.875000
1567		52.734375
1568		41.015625
1569		48.828125
1570		37.109375
1571		44.921875
1572		31.250000
1573		41.015625
1574		27.343750
1575		37.109375
1576		21.484375
1577		33.203125
1578		17.578125
1579		27.343750
1580		13.671875
1581		23.437500
1582		9.765625
1583		15.625000
1584		1.953125
1585		9.765625
1586		-3.906250
1587		5.859375
1588		-9.765625
1589		1.953125
1590		-13.671875
1591		-3.906250
1592		-19.531250
1593		-7.812500
1594		-23.437500
1595		-13.671875
1596		-27.343750
1597		-17.578125
1598		-31.250000
1599		-25.390625
1600		-35.156250
1601		-29.296875
1602		-42.968750
1603		-33.203125
1604		-46.875000
1605		-37.109375
1606		-50.781250
1607		-42.968750
1608		-56.640625
1609		-46.875000
1610		-60.546875
1611		-50.781250
1612		-64.453125
1613		-54.687500
1614		-66.406250
1615		-60.546875
1616		-70.312500
1617		-66.406250
1618		-76.171875
1619		-68.359375
1620		-80.078125
1621		-70.312500
1622		-83.984375
1623		-74.218750
1624		-85.937500
1625		-78.125000
1626		-87.890625
1627		-80.078125
1628		-89.843750
1629		-83.984375
1630		-91.796875
1631		-85.937500
1632		-93.750000
1633		-89.843750
1634		-95.703125
1635		-91.796875
1636		-99.609375
1637		-91.796875
1638		-99.609375
1639		-91.796875
1640		-101.562500
1641		-93.750000
1642		-101.562500
1643		-95.703125
1644		-101.562500
1645		-95.703125
1646		-101.562500
1647		-95.703125
1648		-99.609375
1649		-97.656250
1650		-99.609375
1651		-97.656250
1652		-101.562500
1653		-93.750000
1654		-101.562500
1655		-93.750000
1656		-99.609375
1657		-91.796875
1658		-97.656250
1659		-89.843750
1660		-97.656250
1661		-87.890625
1662		-93.750000
1663		-87.890625
1664		-93.750000
1665		-85.937500
1666		-87.890625
1667		-83.984375
1668		-85.937500
1669		-78.125000
1670		-85.937500
1671		-76.171875
1672		-82.031250
1673		-72.265625
1674		-78.125000
1675		-70.312500
1676		-74.218750
1677		-66.406250
1678		-70.312500
1679		-62.500000
1680		-66.406250
1681		-58.593750
1682		-60.546875
1683		-56.640625
1684		-56.640625
1685		-50.781250
1686		-54.687500
1687		-44.921875
1688		-50.781250
1689		-39.062500
1690		-44.921875
1691		-37.109375
1692		-41.015625
1693		-31.250000
1694		-37.109375
1695		-25.390625
1696		-31.250000
1697		-21.484375
1698		-25.390625
1699		-17.578125
1700		-19.531250
1701		-13.671875
1702		-15.625000
1703		-5.859375
1704		-11.718750
1705		-1.953125
1706		-7.812500
1707		3.906250
1708		-1.953125
1709		7.812500
1710		3.906250
1711		13.671875
1712		7.812500
1713		19.531250
1714		13.671875
1715		21.484375
1716		21.484375
1717		25.390625
1718		25.390625
1719		33.203125
1720		27.343750
1721		37.109375
1722		33.203125
1723		42.968750
1724		37.109375
1725		46.875000
1726		41.015625
1727		50.781250
1728		46.875000
1729		56.640625
1730		50.781250
1731		58.593750
1732		56.640625
1733		62.500000
1734		60.546875
1735		64.453125
1736		62.500000
1737		70.312500
1738		66.406250
1739		74.218750
1740		68.359375
1741		78.125000
1742		72.265625
1743		80.078125
1744		76.171875
1745		83.984375
1746		78.125000
1747		85.937500
1748		82.031250
1749		87.890625
1750		85.937500
1751		89.843750
1752		87.890625
1753		93.750000
1754		87.890625
1755		95.703125
1756		89.843750
1757		97.656250
1758		91.796875
1759		99.609375
1760		93.750000
1761		101.562500
1762		95.703125
1763		101.562500
1764		95.703125
1765		103.515625
1766		99.609375
1767		101.562500
1768		99.609375
1769		103.515625
1770		99.609375
1771		103.515625
1772		99.609375
1773		105.468750
1774		99.609375
1775		105.468750
1776		99.609375
1777		105.468750
1778		99.609375
1779		103.515625
1780		97.656250
1781		103.515625
1782		97.656250
1783		103.515625
1784		97.656250
1785		99.609375
1786		93.750000
1787		101.562500
1788		91.796875
1789		99.609375
1790		89.843750
1791		99.609375
1792		87.890625
1793		97.656250
1794		87.890625
1795		95.703125
1796		83.984375
1797		93.750000
1798		83.984375
1799		89.843750
1800		82.031250
1801		85.937500
1802		76.171875
1803		83.984375
1804		74.218750
1805		82.031250
1806		70.312500
1807		80.078125
1808		66.406250
1809		76.171875
1810		64.453125
1811		72.265625
1812		60.546875
1813		70.312500
1814		56.640625
1815		64.453125
1816		54.687500
1817		58.593750
1818		50.781250
1819		54.687500
1820		42.968750
1821		50.781250
1822		39.062500
1823		48.828125
1824		35.156250
1825		44.921875
1826		29.296875
1827		39.062500
1828		25.390625
1829		35.156250
1830		19.531250
1831		29.296875
1832		17.578125
1833		25.390625
1834		11.718750
1835		17.578125
1836		3.906250
1837		13.671875
1838		0.000000
1839		9.765625
1840		-5.859375
1841		5.859375
1842		-9.765625
1843		0.000000
1844		-15.625000
1845		-5.859375
1846		-19.531250
1847		-9.765625
1848		-23.437500
1849		-13.671875
1850		-27.343750
1851		-21.484375
1852		-33.203125
1853		-27.343750
1854		-41.015625
1855		-31.250000
1856		-44.921875
1857		-35.156250
1858		-48.828125
1859		-39.062500
1860		-54.687500
1861		-44.921875
1862		-58.593750
1863		-48.828125
1864		-62.500000
1865		-52.734375
1866		-64.453125
1867		-56.640625
1868		-68.359375
1869		-62.500000
1870		-74.218750
1871		-66.406250
1872		-78.125000
1873		-68.359375
1874		-82.031250
1875		-72.265625
1876		-83.984375
1877		-76.171875
1878		-87.890625
1879		-78.125000
1880		-89.843750
1881		-82.031250
1882		-91.796875
1883		-83.984375
1884		-91.796875
1885		-87.890625
1886		-95.703125
1887		-89.843750
1888		-97.656250
1889		-89.843750
1890		-99.609375
1891		-91.796875
1892		-101.562500
1893		-93.750000
1894		-101.562500
1895		-93.750000
1896		-101.562500
1897		-95.703125
1898		-103.515625
1899		-95.703125
1900		-99.609375
1901		-97.656250
1902		-99.609375
1903		-97.656250
1904		-101.562500
1905		-95.703125
1906		-101.562500
1907		-93.750000
1908		-101.562500
1909		-93.750000
1910		-99.609375
1911		-91.796875
1912		-97.656250
1913		-89.843750
1914		-97.656250
1915		-89.843750
1916		-95.703125
1917		-87.890625
1918		-89.843750
1919		-85.937500
1920		-87.890625
1921		-82.031250
1922		-87.890625
1923		-80.078125
1924		-85.937500
1925		-76.171875
1926		-82.031250
1927		-72.265625
1928		-78.125000
1929		-68.359375
1930		-74.218750
1931		-66.406250
1932		-70.312500
1933		-62.500000
1934		-64.453125
1935		-58.593750
1936		-60.546875
1937		-54.687500
1938		-56.640625
1939		-48.828125
1940		-54.687500
1941		-44.921875
1942		-48.828125
1943		-39.062500
1944		-44.921875
1945		-35.156250
1946		-41.015625
1947		-29.296875
1948		-35.156250
1949		-25.390625
1950		-31.250000
1951		-21.484375
1952		-23.437500
1953		-17.578125
1954		-17.578125
1955		-9.765625
1956		-15.625000
1957		-5.859375
1958		-9.765625
1959		0.000000
1960		-5.859375
1961		5.859375
1962		0.000000
1963		9.765625
1964		5.859375
1965		15.625000
1966		9.765625
1967		17.578125
1968		17.578125
1969		23.437500
1970		21.484375
1971		27.343750
1972		25.390625
1973		33.203125
1974		29.296875
1975		39.062500
1976		33.203125
1977		42.968750
1978		37.109375
1979		46.875000
1980		41.015625
1981		52.734375
1982		46.875000
1983		56.640625
1984		52.734375
1985		58.593750
1986		56.640625
1987		62.500000
1988		60.546875
1989		68.359375
1990		62.500000
1991		72.265625
1992		66.406250
1993		74.218750
1994		70.312500
1995		78.125000
1996		72.265625
1997		82.031250
1998		76.171875
1999		83.984375
2000		78.125000
2001		85.937500
2002		83.984375
2003		87.890625
2004		85.937500
2005		91.796875
2006		85.937500
2007		93.750000
2008		87.890625
2009		95.703125
2010		89.843750
2011		97.656250
2012		91.796875
2013		99.609375
2014		93.750000
2015		101.562500
2016		93.750000
2017		101.562500
2018		97.656250
2019		101.562500
2020		99.609375
2021		101.562500
2022		97.656250
2023		103.515625
2024		97.656250
2025		105.468750
2026		97.656250
2027		105.468750
2028		97.656250
2029		105.468750
2030		97.656250
2031		105.468750
2032		97.656250
2033		105.468750
2034		97.656250
2035		103.515625
2036		97.656250
2037		101.562500
2038		95.703125
2039		101.562500
2040		93.750000
2041		101.562500
2042		91.796875
2043		99.609375
2044		89.843750
2045		97.656250
2046		87.890625
2047		95.703125
2048		85.937500
2049		93.750000
2050		83.984375
2051		91.796875
2052		83.984375
2053		87.890625
2054		80.078125
2055		83.984375
2056		74.218750
2057		83.984375
2058		72.265625
2059		82.031250
2060		68.359375
2061		78.125000
2062		64.453125
2063		74.218750
2064		62.500000
2065		72.265625
2066		58.593750
2067		66.406250
2068		56.640625
2069		62.500000
2070		52.734375
2071		58.593750
2072		46.875000
2073		52.734375
2074		41.015625
2075		50.781250
2076		37.109375
2077		46.875000
2078		33.203125
2079		42.968750
2080		27.343750
2081		37.109375
2082		21.484375
2083		33.203125
2084		19.531250
2085		27.343750
2086		15.625000
2087		21.484375
2088		7.812500
2089		15.625000
2090		1.953125
2091		13.671875
2092		-1.953125
2093		7.812500
2094		-7.812500
2095		3.906250
2096		-11.718750
2097		-1.953125
2098		-17.578125
2099		-7.812500
2100		-21.484375
2101		-11.718750
2102		-25.390625
2103		-19.531250
2104		-31.250000
2105		-23.437500
2106		-37.109375
2107		-27.343750
2108		-41.015625
2109		-31.250000
2110		-46.875000
2111		-37.109375
2112		-50.781250
2113		-41.015625
2114		-56.640625
2115		-44.921875
2116		-60.546875
2117		-50.781250
2118		-62.500000
2119		-54.687500
2120		-66.406250
2121		-60.546875
2122		-72.265625
2123		-64.453125
2124		-76.171875
2125		-66.406250
2126		-80.078125
2127		-70.312500
2128		-82.031250
2129		-74.218750
2130		-85.937500
2131		-76.171875
2132		-87.890625
2133		-80.078125
2134		-89.843750
2135		-82.031250
2136		-91.796875
2137		-87.890625
2138		-93.750000
2139		-89.843750
2140		-97.656250
2141		-89.843750
2142		-99.609375
2143		-91.796875
2144		-99.609375
2145		-91.796875
2146		-101.562500
2147		-93.750000
2148		-101.562500
2149		-93.750000
2150		-101.562500
2151		-95.703125
2152		-101.562500
2153		-97.656250
2154		-99.609375
2155		-97.656250
2156		-101.562500
2157		-95.703125
2158		-101.562500
2159		-93.750000
2160		-101.562500
2161		-93.750000
2162		-99.609375
2163		-91.796875
2164		-99.609375
2165		-91.796875
2166		-97.656250
2167		-89.843750
2168		-95.703125
2169		-87.890625
2170		-91.796875
2171		-87.890625
2172		-89.843750
2173		-82.031250
2174		-87.890625
2175		-80.078125
2176		-83.984375
2177		-76.171875
2178		-82.031250
2179		-74.218750
2180		-78.125000
2181		-70.312500
2182		-76.171875
2183		-66.406250
2184		-72.265625
2185		-64.453125
2186		-66.406250
2187		-60.546875
2188		-62.500000
2189		-56.640625
2190		-58.593750
2191		-48.828125
2192		-56.640625
2193		-46.875000
2194		-50.781250
2195		-41.015625
2196		-46.875000
2197		-37.109375
2198		-42.968750
2199		-33.203125
2200		-37.109375
2201		-27.343750
2202		-31.250000
2203		-23.437500
2204		-25.390625
2205		-19.531250
2206		-19.531250
2207		-11.718750
2208		-17.578125
2209		-7.812500
2210		-11.718750
2211		-1.953125
2212		-7.812500
2213		1.953125
2214		-1.953125
2215		7.812500
2216		1.953125
2217		11.718750
2218		7.812500
2219		17.578125
2220		13.671875
2221		21.484375
2222		19.531250
2223		25.390625
2224		21.484375
2225		31.250000
2226		27.343750
2227		37.109375
2228		31.250000
2229		41.015625
2230		37.109375
2231		46.875000
2232		41.015625
2233		50.781250
2234		44.921875
2235		54.687500
2236		50.781250
2237		56.640625
2238		56.640625
2239		60.546875
2240		58.593750
2241		66.406250
2242		60.546875
2243		70.312500
2244		64.453125
2245		74.218750
2246		68.359375
2247		78.125000
2248		72.265625
2249		80.078125
2250		74.218750
2251		83.984375
2252		78.125000
2253		83.984375
2254		82.031250
2255		87.890625
2256		85.937500
2257		89.843750
2258		85.937500
2259		93.750000
2260		87.890625
2261		95.703125
2262		89.843750
2263		97.656250
2264		91.796875
2265		99.609375
2266		93.750000
2267		101.562500
2268		95.703125
2269		101.562500
2270		97.656250
2271		101.562500
2272		99.609375
2273		101.562500
2274		97.656250
2275		105.468750
2276		97.656250
2277		105.468750
2278		99.609375
2279		105.468750
2280		99.609375
2281		105.468750
2282		99.609375
2283		105.468750
2284		99.609375
2285		105.468750
2286		97.656250
2287		105.468750
2288		99.609375
2289		101.562500
2290		97.656250
2291		103.515625
2292		95.703125
2293		103.515625
2294		93.750000
2295		101.562500
2296		91.796875
2297		99.609375
2298		89.843750
2299		97.656250
2300		87.890625
2301		95.703125
2302		85.937500
2303		93.750000
2304		85.937500
2305		89.843750
2306		80.078125
2307		87.890625
2308		78.125000
2309		85.937500
2310		76.171875
2311		83.984375
2312		72.265625
2313		80.078125
2314		70.312500
2315		78.125000
2316		66.406250
2317		74.218750
2318		62.500000
2319		70.312500
2320		60.546875
2321		66.406250
2322		56.640625
2323		60.546875
2324		48.828125
2325		56.640625
2326		44.921875
2327		54.687500
2328		41.015625
2329		50.781250
2330		37.109375
2331		46.875000
2332		31.250000
2333		42.968750
2334		27.343750
2335		37.109375
2336		23.437500
2337		33.203125
2338		19.531250
2339		25.390625
2340		13.671875
2341		21.484375
2342		7.812500
2343		17.578125
2344		3.906250
2345		11.718750
2346		-1.953125
2347		7.812500
2348		-7.812500
2349		1.953125
2350		-11.718750
2351		-1.953125
2352		-17.578125
2353		-7.812500
2354		-21.484375
2355		-15.625000
2356		-25.390625
2357		-19.531250
2358		-33.203125
2359		-23.437500
2360		-37.109375
2361		-27.343750
2362		-42.968750
2363		-33.203125
2364		-46.875000
2365		-37.109375
2366		-52.734375
2367		-41.015625
2368		-56.640625
2369		-46.875000
2370		-58.593750
2371		-50.781250
2372		-62.500000
2373		-56.640625
2374		-68.359375
2375		-60.546875
2376		-72.265625
2377		-62.500000
2378		-76.171875
2379		-66.406250
2380		-80.078125
2381		-70.312500
2382		-83.984375
2383		-74.218750
2384		-85.937500
2385		-76.171875
2386		-87.890625
2387		-80.078125
2388		-87.890625
2389		-83.984375
2390		-89.843750
2391		-87.890625
2392		-95.703125
2393		-87.890625
2394		-97.656250
2395		-89.843750
2396		-97.656250
2397		-89.843750
2398		-99.609375
2399		-91.796875
2400		-101.562500
2401		-93.750000
2402		-101.562500
2403		-93.750000
2404		-101.562500
2405		-95.703125
2406		-99.609375
2407		-97.656250
2408		-101.562500
2409		-95.703125
2410		-101.562500
2411		-95.703125
2412		-101.562500
2413		-93.750000
2414		-99.609375
2415		-91.796875
2416		-99.609375
2417		-91.796875
2418		-97.656250
2419		-89.843750
2420		-95.703125
2421		-89.843750
2422		-91.796875
2423		-87.890625
2424		-89.843750
2425		-83.984375
2426		-89.843750
2427		-82.031250
2428		-87.890625
2429		-78.125000
2430		-83.984375
2431		-76.171875
2432		-82.031250
2433		-72.265625
2434		-80.078125
2435		-70.312500
2436		-74.218750
2437		-66.406250
2438		-68.359375
2439		-64.453125
2440		-64.453125
2441		-60.546875
2442		-62.500000
2443		-52.734375
2444		-58.593750
2445		-48.828125
2446		-54.687500
2447		-44.921875
2448		-50.781250
2449		-41.015625
2450		-46.875000
2451		-35.156250
2452		-41.015625
2453		-31.250000
2454		-37.109375
2455		-27.343750
2456		-29.296875
2457		-23.437500
2458		-23.437500
2459		-15.625000
2460		-21.484375
2461		-11.718750
2462		-15.625000
2463		-5.859375
2464		-11.718750
2465		-1.953125
2466		-5.859375
2467		3.906250
2468		0.000000
2469		9.765625
2470		3.906250
2471		11.718750
2472		11.718750
2473		17.578125
2474		15.625000
2475		21.484375
2476		19.531250
2477		29.296875
2478		23.437500
2479		33.203125
2480		27.343750
2481		39.062500
2482		33.203125
2483		42.968750
2484		37.109375
2485		48.828125
2486		41.015625
2487		50.781250
2488		46.875000
2489		54.687500
2490		52.734375
2491		58.593750
2492		56.640625
2493		64.453125
2494		58.593750
2495		68.359375
2496		62.500000
2497		72.265625
2498		66.406250
2499		76.171875
2500		70.312500
2501		78.125000
2502		72.265625
2503		80.078125
2504		76.171875
2505		82.031250
2506		80.078125
2507		85.937500
2508		83.984375
2509		87.890625
2510		83.984375
2511		91.796875
2512		85.937500
2513		93.750000
2514		87.890625
2515		95.703125
2516		89.843750
2517		97.656250
2518		91.796875
2519		99.609375
2520		93.750000
2521		101.562500
2522		97.656250
2523		99.609375
2524		99.609375
2525		101.562500
2526		97.656250
2527		103.515625
2528		97.656250
2529		105.468750
2530		97.656250
2531		105.468750
2532		99.609375
2533		105.468750
2534		97.656250
2535		105.468750
2536		99.609375
2537		105.468750
2538		99.609375
2539		105.468750
2540		99.609375
2541		101.562500
2542		97.656250
2543		103.515625
2544		95.703125
2545		103.515625
2546		95.703125
2547		101.562500
2548		93.750000
2549		99.609375
2550		91.796875
2551		99.609375
2552		89.843750
2553		97.656250
2554		87.890625
2555		95.703125
2556		85.937500
2557		91.796875
2558		83.984375
2559		89.843750
2560		80.078125
2561		87.890625
2562		76.171875
2563		85.937500
2564		74.218750
2565		82.031250
2566		70.312500
2567		80.078125
2568		66.406250
2569		76.171875
2570		64.453125
2571		72.265625
2572		62.500000
2573		70.312500
2574		58.593750
2575		64.453125
2576		52.734375
2577		60.546875
2578		48.828125
2579		56.640625
2580		44.921875
2581		52.734375
2582		39.062500
2583		48.828125
2584		35.156250
2585		44.921875
2586		29.296875
2587		39.062500
2588		27.343750
2589		35.156250
2590		21.484375
2591		27.343750
2592		17.578125
2593		23.437500
2594		9.765625
2595		21.484375
2596		5.859375
2597		15.625000
2598		0.000000
2599		11.718750
2600		-5.859375
2601		5.859375
2602		-9.765625
2603		0.000000
2604		-15.625000
2605		-3.906250
2606		-17.578125
2607		-11.718750
2608		-23.437500
2609		-17.578125
2610		-29.296875
2611		-21.484375
2612		-35.156250
2613		-23.437500
2614		-39.062500
2615		-29.296875
2616		-44.921875
2617		-35.156250
2618		-50.781250
2619		-39.062500
2620		-54.687500
2621		-42.968750
2622		-56.640625
2623		-48.828125
2624		-60.546875
2625		-54.687500
2626		-66.406250
2627		-58.593750
2628		-70.312500
2629		-60.546875
2630		-74.218750
2631		-64.453125
2632		-76.171875
2633		-68.359375
2634		-80.078125
2635		-72.265625
2636		-83.984375
2637		-74.218750
2638		-85.937500
2639		-78.125000
2640		-87.890625
2641		-82.031250
2642		-89.843750
2643		-85.937500
2644		-93.750000
2645		-85.937500
2646		-95.703125
2647		-87.890625
2648		-97.656250
2649		-89.843750
2650		-99.609375
2651		-91.796875
2652		-101.562500
2653		-91.796875
2654		-101.562500
2655		-93.750000
2656		-101.562500
2657		-95.703125
2658		-99.609375
2659		-97.656250
2660		-101.562500
2661		-95.703125
2662		-101.562500
2663		-95.703125
2664		-101.562500
2665		-93.750000
2666		-101.562500
2667		-93.750000
2668		-99.609375
2669		-91.796875
2670		-99.609375
2671		-91.796875
2672		-97.656250
2673		-89.843750
2674		-93.750000
2675		-89.843750
2676		-91.796875
2677		-87.890625
2678		-91.796875
2679		-83.984375
2680		-89.843750
2681		-80.078125
2682		-87.890625
2683		-78.125000
2684		-83.984375
2685		-74.218750
2686		-82.031250
2687		-72.265625
2688		-78.125000
2689		-68.359375
2690		-72.265625
2691		-66.406250
2692		-68.359375
2693		-62.500000
2694		-64.453125
2695		-56.640625
2696		-62.500000
2697		-52.734375
2698		-56.640625
2699		-48.828125
2700		-52.734375
2701		-42.968750
2702		-48.828125
2703		-39.062500
2704		-44.921875
2705		-33.203125
2706		-39.062500
2707		-31.250000
2708		-33.203125
2709		-27.343750
2710		-27.343750
2711		-19.531250
2712		-25.390625
2713		-13.671875
2714		-19.531250
2715		-9.765625
2716		-13.671875
2717		-3.906250
2718		-9.765625
2719		0.000000
2720		-3.906250
2721		5.859375
2722		0.000000
2723		9.765625
2724		7.812500
2725		13.671875
2726		11.718750
2727		19.531250
2728		17.578125
2729		25.390625
2730		21.484375
2731		29.296875
2732		25.390625
2733		35.156250
2734		29.296875
2735		41.015625
2736		35.156250
2737		44.921875
2738		39.062500
2739		48.828125
2740		44.921875
2741		50.781250
2742		48.828125
2743		54.687500
2744		54.687500
2745		62.500000
2746		56.640625
2747		66.406250
2748		58.593750
2749		68.359375
2750		62.500000
2751		72.265625
2752		66.406250
2753		76.171875
2754		70.312500
2755		80.078125
2756		74.218750
2757		82.031250
2758		78.125000
2759		82.031250
2760		82.031250
2761		85.937500
2762		82.031250
2763		89.843750
2764		83.984375
2765		93.750000
2766		87.890625
2767		95.703125
2768		89.843750
2769		97.656250
2770		89.843750
2771		99.609375
2772		91.796875
2773		99.609375
2774		93.750000
2775		99.609375
2776		97.656250
2777		101.562500
2778		97.656250
2779		103.515625
2780		97.656250
2781		105.468750
2782		97.656250
2783		105.468750
2784		99.609375
2785		105.468750
2786		99.609375
2787		105.468750
2788		99.609375
2789		105.468750
2790		99.609375
2791		105.468750
2792		101.562500
2793		103.515625
2794		99.609375
2795		103.515625
2796		95.703125
2797		103.515625
2798		95.703125
2799		103.515625
2800		93.750000
2801		101.562500
2802		93.750000
2803		99.609375
2804		89.843750
2805		99.609375
2806		89.843750
2807		95.703125
2808		89.843750
2809		91.796875
2810		85.937500
2811		89.843750
2812		82.031250
2813		87.890625
2814		80.078125
2815		87.890625
2816		76.171875
2817		83.984375
2818		72.265625
2819		82.031250
2820		70.312500
2821		78.125000
2822		66.406250
2823		76.171875
2824		64.453125
2825		72.265625
2826		60.546875
2827		66.406250
2828		54.687500
2829		62.500000
2830		50.781250
2831		60.546875
2832		46.875000
2833		56.640625
2834		41.015625
2835		52.734375
2836		37.109375
2837		46.875000
2838		33.203125
2839		42.968750
2840		29.296875
2841		39.062500
2842		25.390625
2843		31.250000
2844		21.484375
2845		27.343750
2846		13.671875
2847		23.437500
2848		9.765625
2849		19.531250
2850		3.906250
2851		13.671875
2852		-1.953125
2853		7.812500
2854		-5.859375
2855		3.906250
2856		-11.718750
2857		-1.953125
2858		-13.671875
2859		-5.859375
2860		-19.531250
2861		-13.671875
2862		-27.343750
2863		-19.531250
2864		-31.250000
2865		-21.484375
2866		-37.109375
2867		-25.390625
2868		-41.015625
2869		-31.250000
2870		-46.875000
2871		-37.109375
2872		-50.781250
2873		-41.015625
2874		-52.734375
2875		-44.921875
2876		-56.640625
2877		-50.781250
2878		-62.500000
2879		-56.640625
2880		-68.359375
2881		-58.593750
2882		-72.265625
2883		-62.500000
2884		-74.218750
2885		-64.453125
2886		-78.125000
2887		-70.312500
2888		-82.031250
2889		-74.218750
2890		-83.984375
2891		-76.171875
2892		-85.937500
2893		-82.031250
2894		-87.890625
2895		-83.984375
2896		-91.796875
2897		-85.937500
2898		-93.750000
2899		-85.937500
2900		-95.703125
2901		-87.890625
2902		-97.656250
2903		-89.843750
2904		-99.609375
2905		-91.796875
2906		-101.562500
2907		-93.750000
2908		-101.562500
2909		-93.750000
2910		-99.609375
2911		-97.656250
2912		-101.562500
2913		-95.703125
2914		-101.562500
2915		-95.703125
2916		-101.562500
2917		-95.703125
2918		-101.562500
2919		-93.750000
2920		-101.562500
2921		-93.750000
2922		-99.609375
2923		-91.796875
2924		-99.609375
2925		-91.796875
2926		-93.750000
2927		-91.796875
2928		-93.750000
2929		-89.843750
2930		-91.796875
2931		-85.937500
2932		-91.796875
2933		-82.031250
2934		-89.843750
2935		-80.078125
2936		-85.937500
2937		-78.125000
2938		-82.031250
2939		-74.218750
2940		-80.078125
2941		-70.312500
2942		-76.171875
2943		-68.359375
2944		-70.312500
2945		-66.406250
2946		-66.406250
2947		-60.546875
2948		-64.453125
2949		-54.687500
2950		-60.546875
2951		-50.781250
2952		-56.640625
2953		-46.875000
2954		-52.734375
2955		-42.968750
2956		-48.828125
2957		-37.109375
2958		-42.968750
2959		-35.156250
2960		-35.156250
2961		-29.296875
2962		-31.250000
2963		-23.437500
2964		-29.296875
2965		-17.578125
2966		-23.437500
2967		-13.671875
2968		-17.578125
2969		-7.812500
2970		-11.718750
2971		-1.953125
2972		-7.812500
2973		1.953125
2974		-1.953125
2975		7.812500
2976		3.906250
2977		11.718750
2978		7.812500
2979		15.625000
2980		13.671875
2981		21.484375
2982		17.578125
2983		27.343750
2984		21.484375
2985		31.250000
2986		25.390625
2987		37.109375
2988		31.250000
2989		41.015625
2990		35.156250
2991		44.921875
2992		39.062500
2993		48.828125
2994		46.875000
2995		52.734375
2996		50.781250
2997		58.593750
2998		52.734375
2999		62.500000
3000		56.640625
3001		66.406250
3002		60.546875
3003		70.312500
3004		64.453125
3005		72.265625
3006		68.359375
3007		76.171875
3008		70.312500
3009		80.078125
3010		76.171875
3011		80.078125
3012		80.078125
3013		83.984375
3014		82.031250
3015		87.890625
3016		82.031250
3017		91.796875
3018		85.937500
3019		93.750000
3020		87.890625
3021		95.703125
3022		89.843750
3023		97.656250
3024		91.796875
3025		99.609375
3026		93.750000
3027		99.609375
3028		97.656250
3029		99.609375
3030		95.703125
3031		103.515625
3032		95.703125
3033		103.515625
3034		97.656250
3035		105.468750
3036		97.656250
3037		105.468750
3038		97.656250
3039		105.468750
3040		97.656250
3041		105.468750
3042		97.656250
3043		105.468750
3044		99.609375
3045		103.515625
3046		99.609375
3047		101.562500
3048		95.703125
3049		103.515625
3050		95.703125
3051		103.515625
3052		95.703125
3053		101.562500
3054		93.750000
3055		101.562500
3056		91.796875
3057		99.609375
3058		89.843750
3059		97.656250
3060		89.843750
3061		93.750000
3062		87.890625
3063		91.796875
3064		82.031250
3065		89.843750
3066		80.078125
3067		87.890625
3068		78.125000
3069		85.937500
3070		74.218750
3071		83.984375
3072		70.312500
3073		80.078125
3074		68.359375
3075		76.171875
3076		66.406250
3077		74.218750
3078		62.500000
3079		68.359375
3080		56.640625
3081		64.453125
3082		52.734375
3083		62.500000
3084		48.828125
3085		58.593750
3086		44.921875
3087		54.687500
3088		41.015625
3089		48.828125
3090		35.156250
3091		44.921875
3092		31.250000
3093		41.015625
3094		27.343750
3095		35.156250
3096		23.437500
3097		29.296875
3098		15.625000
3099		25.390625
3100		11.718750
3101		21.484375
3102		5.859375
3103		15.625000
3104		1.953125
3105		11.718750
3106		-3.906250
3107		7.812500
3108		-7.812500
3109		1.953125
3110		-11.718750
3111		-3.906250
3112		-17.578125
3113		-9.765625
3114		-23.437500
3115		-15.625000
3116		-29.296875
3117		-19.531250
3118		-35.156250
3119		-23.437500
3120		-39.062500
3121		-29.296875
3122		-44.921875
3123		-33.203125
3124		-48.828125
3125		-39.062500
3126		-50.781250
3127		-41.015625
3128		-54.687500
3129		-48.828125
3130		-60.546875
3131		-52.734375
3132		-66.406250
3133		-56.640625
3134		-68.359375
3135		-60.546875
3136		-72.265625
3137		-64.453125
3138		-76.171875
3139		-68.359375
3140		-80.078125
3141		-72.265625
3142		-83.984375
3143		-74.218750
3144		-83.984375
3145		-80.078125
3146		-87.890625
3147		-82.031250
3148		-91.796875
3149		-83.984375
3150		-93.750000
3151		-85.937500
3152		-95.703125
3153		-87.890625
3154		-97.656250
3155		-89.843750
3156		-99.609375
3157		-91.796875
3158		-99.609375
3159		-93.750000
3160		-101.562500
3161		-93.750000
3162		-99.609375
3163		-97.656250
3164		-101.562500
3165		-95.703125
3166		-103.515625
3167		-95.703125
3168		-103.515625
3169		-95.703125
3170		-101.562500
3171		-95.703125
3172		-101.562500
3173		-95.703125
3174		-101.562500
3175		-93.750000
3176		-99.609375
3177		-93.750000
3178		-95.703125
3179		-93.750000
3180		-95.703125
3181		-91.796875
3182		-95.703125
3183		-87.890625
3184		-93.750000
3185		-83.984375
3186		-91.796875
3187		-82.031250
3188		-87.890625
3189		-80.078125
3190		-85.937500
3191		-76.171875
3192		-82.031250
3193		-72.265625
3194		-78.125000
3195		-72.265625
3196		-74.218750
3197		-68.359375
3198		-70.312500
3199		-62.500000
3200		-68.359375
3201		-58.593750
3202		-64.453125
3203		-54.687500
3204		-60.546875
3205		-50.781250
3206		-54.687500
3207		-44.921875
3208		-50.781250
3209		-41.015625
3210		-46.875000
3211		-39.062500
3212		-39.062500
3213		-33.203125
3214		-35.156250
3215		-27.343750
3216		-31.250000
3217		-21.484375
3218		-27.343750
3219		-15.625000
3220		-23.437500
3221		-11.718750
3222		-17.578125
3223		-5.859375
3224		-11.718750
3225		-1.953125
3226		-7.812500
3227		3.906250
3228		0.000000
3229		5.859375
3230		5.859375
3231		11.718750
3232		9.765625
3233		19.531250
3234		13.671875
3235		23.437500
3236		17.578125
3237		27.343750
3238		23.437500
3239		33.203125
3240		27.343750
3241		39.062500
3242		33.203125
3243		42.968750
3244		37.109375
3245		44.921875
3246		42.968750
3247		48.828125
3248		48.828125
3249		54.687500
3250		50.781250
3251		60.546875
3252		52.734375
3253		62.500000
3254		58.593750
3255		66.406250
3256		62.500000
3257		70.312500
3258		66.406250
3259		74.218750
3260		68.359375
3261		76.171875
3262		74.218750
3263		78.125000
3264		78.125000
3265		82.031250
3266		78.125000
3267		85.937500
3268		80.078125
3269		89.843750
3270		83.984375
3271		91.796875
3272		85.937500
3273		93.750000
3274		87.890625
3275		95.703125
3276		89.843750
3277		97.656250
3278		91.796875
3279		97.656250
3280		95.703125
3281		97.656250
3282		95.703125
3283		101.562500
3284		95.703125
3285		103.515625
3286		95.703125
3287		103.515625
3288		97.656250
3289		103.515625
3290		97.656250
3291		105.468750
3292		97.656250
3293		105.468750
3294		97.656250
3295		105.468750
3296		99.609375
3297		103.515625
3298		99.609375
3299		103.515625
3300		97.656250
3301		105.468750
3302		95.703125
3303		103.515625
3304		95.703125
3305		101.562500
3306		93.750000
3307		101.562500
3308		93.750000
3309		99.609375
3310		89.843750
3311		97.656250
3312		91.796875
3313		95.703125
3314		89.843750
3315		91.796875
3316		83.984375
3317		91.796875
3318		82.031250
3319		89.843750
3320		80.078125
3321		87.890625
3322		76.171875
3323		85.937500
3324		74.218750
3325		82.031250
3326		70.312500
3327		80.078125
3328		68.359375
3329		76.171875
3330		64.453125
3331		70.312500
3332		58.593750
3333		66.406250
3334		54.687500
3335		64.453125
3336		50.781250
3337		60.546875
3338		46.875000
3339		56.640625
3340		42.968750
3341		52.734375
3342		37.109375
3343		48.828125
3344		33.203125
3345		42.968750
3346		31.250000
3347		37.109375
3348		25.390625
3349		31.250000
3350		19.531250
3351		27.343750
3352		13.671875
3353		25.390625
3354		9.765625
3355		19.531250
3356		3.906250
3357		13.671875
3358		0.000000
3359		9.765625
3360		-5.859375
3361		5.859375
3362		-7.812500
3363		0.000000
3364		-13.671875
3365		-7.812500
3366		-19.531250
3367		-13.671875
3368		-27.343750
3369		-15.625000
3370		-31.250000
3371		-21.484375
3372		-35.156250
3373		-25.390625
3374		-41.015625
3375		-31.250000
3376		-44.921875
3377		-35.156250
3378		-48.828125
3379		-41.015625
3380		-52.734375
3381		-46.875000
3382		-56.640625
3383		-50.781250
3384		-64.453125
3385		-54.687500
3386		-68.359375
3387		-58.593750
3388		-70.312500
3389		-62.500000
3390		-76.171875
3391		-64.453125
3392		-78.125000
3393		-68.359375
3394		-82.031250
3395		-74.218750
3396		-82.031250
3397		-76.171875
3398		-85.937500
3399		-82.031250
3400		-89.843750
3401		-83.984375
3402		-93.750000
3403		-83.984375
3404		-95.703125
3405		-85.937500
3406		-97.656250
3407		-89.843750
3408		-99.609375
3409		-91.796875
3410		-99.609375
3411		-91.796875
3412		-101.562500
3413		-93.750000
3414		-99.609375
3415		-97.656250
3416		-101.562500
3417		-97.656250
3418		-103.515625
3419		-95.703125
3420		-103.515625
3421		-95.703125
3422		-103.515625
3423		-95.703125
3424		-103.515625
3425		-95.703125
3426		-101.562500
3427		-95.703125
3428		-101.562500
3429		-93.750000
3430		-97.656250
3431		-95.703125
3432		-95.703125
3433		-93.750000
3434		-95.703125
3435		-89.843750
3436		-95.703125
3437		-85.937500
3438		-93.750000
3439		-83.984375
3440		-89.843750
3441		-82.031250
3442		-87.890625
3443		-78.125000
3444		-83.984375
3445		-76.171875
3446		-82.031250
3447		-74.218750
3448		-76.171875
3449		-72.265625
3450		-72.265625
3451		-66.406250
3452		-70.312500
3453		-62.500000
3454		-66.406250
3455		-58.593750
3456		-62.500000
3457		-54.687500
3458		-58.593750
3459		-48.828125
3460		-54.687500
3461		-44.921875
3462		-48.828125
3463		-41.015625
3464		-42.968750
3465		-37.109375
3466		-39.062500
3467		-33.203125
3468		-35.156250
3469		-25.390625
3470		-31.250000
3471		-19.531250
3472		-25.390625
3473		-15.625000
3474		-19.531250
3475		-9.765625
3476		-15.625000
3477		-5.859375
3478		-11.718750
3479		0.000000
3480		-5.859375
3481		1.953125
3482		1.953125
3483		7.812500
3484		5.859375
3485		13.671875
3486		9.765625
3487		19.531250
3488		13.671875
3489		25.390625
3490		19.531250
3491		29.296875
3492		23.437500
3493		35.156250
3494		29.296875
3495		39.062500
3496		33.203125
3497		41.015625
3498		41.015625
3499		44.921875
3500		44.921875
3501		50.781250
3502		46.875000
3503		56.640625
3504		50.781250
3505		60.546875
3506		56.640625
3507		64.453125
3508		58.593750
3509		68.359375
3510		62.500000
3511		72.265625
3512		66.406250
3513		74.218750
3514		72.265625
3515		76.171875
3516		74.218750
3517		80.078125
3518		78.125000
3519		83.984375
3520		78.125000
3521		87.890625
3522		82.031250
3523		89.843750
3524		83.984375
3525		91.796875
3526		85.937500
3527		93.750000
3528		87.890625
3529		95.703125
3530		89.843750
3531		97.656250
3532		93.750000
3533		97.656250
3534		93.750000
3535		99.609375
3536		95.703125
3537		101.562500
3538		95.703125
3539		103.515625
3540		95.703125
3541		103.515625
3542		97.656250
3543		105.468750
3544		97.656250
3545		103.515625
3546		97.656250
3547		103.515625
3548		99.609375
3549		101.562500
3550		99.609375
3551		101.562500
3552		97.656250
3553		103.515625
3554		95.703125
3555		103.515625
3556		95.703125
3557		103.515625
3558		93.750000
3559		101.562500
3560		91.796875
3561		99.609375
3562		91.796875
3563		99.609375
3564		91.796875
3565		97.656250
3566		89.843750
3567		93.750000
3568		85.937500
3569		91.796875
3570		83.984375
3571		91.796875
3572		80.078125
3573		89.843750
3574		78.125000
3575		85.937500
3576		74.218750
3577		83.984375
3578		72.265625
3579		80.078125
3580		70.312500
3581		78.125000
3582		66.406250
3583		72.265625
3584		62.500000
3585		68.359375
3586		56.640625
3587		66.406250
3588		52.734375
3589		62.500000
3590		48.828125
3591		58.593750
3592		44.921875
3593		54.687500
3594		39.062500
3595		50.781250
3596		35.156250
3597		46.875000
3598		33.203125
3599		39.062500
3600		29.296875
3601		35.156250
3602		21.484375
3603		31.250000
3604		17.578125
3605		27.343750
3606		11.718750
3607		23.437500
3608		7.812500
3609		17.578125
3610		1.953125
3611		11.718750
3612		-3.906250
3613		7.812500
3614		-5.859375
3615		1.953125
3616		-11.718750
3617		-5.859375
3618		-17.578125
3619		-9.765625
3620		-23.437500
3621		-13.671875
3622		-27.343750
3623		-17.578125
3624		-33.203125
3625		-21.484375
3626		-37.109375
3627		-27.343750
3628		-42.968750
3629		-33.203125
3630		-44.921875
3631		-37.109375
3632		-50.781250
3633		-44.921875
3634		-54.687500
3635		-48.828125
3636		-60.546875
3637		-52.734375
3638		-64.453125
3639		-56.640625
3640		-68.359375
3641		-58.593750
3642		-72.265625
3643		-62.500000
3644		-78.125000
3645		-66.406250
3646		-80.078125
3647		-72.265625
3648		-80.078125
3649		-74.218750
3650		-83.984375
3651		-80.078125
3652		-89.843750
3653		-82.031250
3654		-91.796875
3655		-83.984375
3656		-93.750000
3657		-85.937500
3658		-95.703125
3659		-87.890625
3660		-97.656250
3661		-89.843750
3662		-99.609375
3663		-91.796875
3664		-99.609375
3665		-93.750000
3666		-99.609375
3667		-97.656250
3668		-101.562500
3669		-97.656250
3670		-103.515625
3671		-95.703125
3672		-103.515625
3673		-95.703125
3674		-103.515625
3675		-95.703125
3676		-103.515625
3677		-95.703125
3678		-103.515625
3679		-95.703125
3680		-101.562500
3681		-93.750000
3682		-99.609375
3683		-95.703125
3684		-97.656250
3685		-93.750000
3686		-97.656250
3687		-89.843750
3688		-95.703125
3689		-87.890625
3690		-93.750000
3691		-85.937500
3692		-91.796875
3693		-83.984375
3694		-89.843750
3695		-82.031250
3696		-85.937500
3697		-78.125000
3698		-83.984375
3699		-76.171875
3700		-78.125000
3701		-74.218750
3702		-74.218750
3703		-68.359375
3704		-72.265625
3705		-64.453125
3706		-70.312500
3707		-60.546875
3708		-66.406250
3709		-56.640625
3710		-62.500000
3711		-52.734375
3712		-56.640625
3713		-46.875000
3714		-52.734375
3715		-44.921875
3716		-46.875000
3717		-41.015625
3718		-41.015625
3719		-35.156250
3720		-37.109375
3721		-27.343750
3722		-33.203125
3723		-23.437500
3724		-29.296875
3725		-19.531250
3726		-25.390625
3727		-13.671875
3728		-17.578125
3729		-7.812500
3730		-13.671875
3731		-3.906250
3732		-9.765625
3733		0.000000
3734		-1.953125
3735		3.906250
3736		3.906250
3737		11.718750
3738		5.859375
3739		17.578125
3740		11.718750
3741		21.484375
3742		15.625000
3743		27.343750
3744		21.484375
3745		31.250000
3746		25.390625
3747		35.156250
3748		31.250000
3749		39.062500
3750		37.109375
3751		42.968750
3752		41.015625
3753		48.828125
3754		44.921875
3755		52.734375
3756		48.828125
3757		58.593750
3758		52.734375
3759		62.500000
3760		56.640625
3761		66.406250
3762		60.546875
3763		70.312500
3764		64.453125
3765		72.265625
3766		70.312500
3767		74.218750
3768		72.265625
3769		78.125000
3770		76.171875
3771		82.031250
3772		76.171875
3773		85.937500
3774		80.078125
3775		87.890625
3776		82.031250
3777		89.843750
3778		83.984375
3779		93.750000
3780		85.937500
3781		93.750000
3782		89.843750
3783		95.703125
3784		93.750000
3785		95.703125
3786		93.750000
3787		101.562500
3788		93.750000
3789		101.562500
3790		95.703125
3791		103.515625
3792		95.703125
3793		103.515625
3794		97.656250
3795		103.515625
3796		97.656250
3797		105.468750
3798		97.656250
3799		105.468750
3800		99.609375
3801		101.562500
3802		99.609375
3803		103.515625
3804		97.656250
3805		103.515625
3806		97.656250
3807		103.515625
3808		95.703125
3809		103.515625
3810		95.703125
3811		103.515625
3812		93.750000
3813		101.562500
3814		93.750000
3815		99.609375
3816		91.796875
3817		99.609375
3818		91.796875
3819		95.703125
3820		87.890625
3821		93.750000
3822		85.937500
3823		93.750000
3824		82.031250
3825		89.843750
3826		80.078125
3827		87.890625
3828		76.171875
3829		85.937500
3830		74.218750
3831		82.031250
3832		72.265625
3833		80.078125
3834		70.312500
3835		74.218750
3836		66.406250
3837		70.312500
3838		60.546875
3839		70.312500
3840		56.640625
3841		66.406250
3842		52.734375
3843		62.500000
3844		48.828125
3845		58.593750
3846		44.921875
3847		54.687500
3848		39.062500
3849		48.828125
3850		37.109375
3851		42.968750
3852		33.203125
3853		39.062500
3854		25.390625
3855		35.156250
3856		19.531250
3857		31.250000
3858		15.625000
3859		25.390625
3860		9.765625
3861		21.484375
3862		5.859375
3863		15.625000
3864		1.953125
3865		11.718750
3866		-1.953125
3867		5.859375
3868		-7.812500
3869		-1.953125
3870		-13.671875
3871		-5.859375
3872		-19.531250
3873		-9.765625
3874		-25.390625
3875		-13.671875
3876		-29.296875
3877		-19.531250
3878		-35.156250
3879		-23.437500
3880		-41.015625
3881		-29.296875
3882		-42.968750
3883		-33.203125
3884		-46.875000
3885		-41.015625
3886		-50.781250
3887		-44.921875
3888		-56.640625
3889		-48.828125
3890		-62.500000
3891		-52.734375
3892		-66.406250
3893		-56.640625
3894		-70.312500
3895		-60.546875
3896		-74.218750
3897		-64.453125
3898		-78.125000
3899		-68.359375
3900		-78.125000
3901		-72.265625
3902		-82.031250
3903		-76.171875
3904		-87.890625
3905		-80.078125
3906		-89.843750
3907		-82.031250
3908		-91.796875
3909		-83.984375
3910		-93.750000
3911		-85.937500
3912		-97.656250
3913		-87.890625
3914		-99.609375
3915		-89.843750
3916		-99.609375
3917		-91.796875
3918		-97.656250
3919		-95.703125
3920		-99.609375
3921		-97.656250
3922		-101.562500
3923		-95.703125
3924		-103.515625
3925		-95.703125
3926		-103.515625
3927		-95.703125
3928		-103.515625
3929		-95.703125
3930		-103.515625
3931		-95.703125
3932		-101.562500
3933		-95.703125
3934		-99.609375
3935		-95.703125
3936		-97.656250
3937		-95.703125
3938		-97.656250
3939		-91.796875
3940		-97.656250
3941		-89.843750
3942		-95.703125
3943		-87.890625
3944		-93.750000
3945		-85.937500
3946		-91.796875
3947		-82.031250
3948		-87.890625
3949		-78.125000
3950		-85.937500
3951		-78.125000
3952		-80.078125
3953		-76.171875
3954		-76.171875
3955		-72.265625
3956		-76.171875
3957		-66.406250
3958		-72.265625
3959		-62.500000
3960		-68.359375
3961		-58.593750
3962		-64.453125
3963		-54.687500
3964		-60.546875
3965		-50.781250
3966		-54.687500
3967		-46.875000
3968		-48.828125
3969		-42.968750
3970		-44.921875
3971		-39.062500
3972		-41.015625
3973		-31.250000
3974		-37.109375
3975		-27.343750
3976		-33.203125
3977		-21.484375
3978		-27.343750
3979		-15.625000
3980		-21.484375
3981		-11.718750
3982		-17.578125
3983		-5.859375
3984		-11.718750
3985		-3.906250
3986		-3.906250
3987		1.953125
3988		0.000000
3989		7.812500
3990		3.906250
3991		13.671875
3992		7.812500
3993		19.531250
3994		13.671875
3995		23.437500
3996		19.531250
3997		29.296875
3998		23.437500
3999		33.203125
4000		27.343750
4001		35.156250
4002		35.156250
4003		41.015625
4004		39.062500
4005		44.921875
4006		41.015625
4007		50.781250
4008		44.921875
4009		54.687500
4010		50.781250
4011		60.546875
4012		54.687500
4013		64.453125
4014		58.593750
4015		68.359375
4016		62.500000
4017		70.312500
4018		66.406250
4019		72.265625
4020		70.312500
4021		76.171875
4022		74.218750
4023		80.078125
4024		74.218750
4025		83.984375
4026		78.125000
4027		85.937500
4028		80.078125
4029		89.843750
4030		83.984375
4031		91.796875
4032		85.937500
4033		93.750000
4034		87.890625
4035		95.703125
4036		91.796875
4037		95.703125
4038		93.750000
4039		97.656250
4040		93.750000
4041		101.562500
4042		95.703125
4043		101.562500
4044		95.703125
4045		103.515625
4046		95.703125
4047		103.515625
4048		97.656250
4049		105.468750
4050		97.656250
4051		105.468750
4052		101.562500
4053		103.515625
4054		99.609375
4055		103.515625
4056		97.656250
4057		105.468750
4058		97.656250
4059		105.468750
4060		97.656250
4061		103.515625
4062		95.703125
4063		103.515625
4064		95.703125
4065		103.515625
4066		93.750000
4067		101.562500
4068		93.750000
4069		99.609375
4070		93.750000
4071		95.703125
4072		89.843750
4073		95.703125
4074		85.937500
4075		95.703125
4076		83.984375
4077		93.750000
4078		82.031250
4079		89.843750
4080		80.078125
4081		87.890625
4082		76.171875
4083		85.937500
4084		74.218750
4085		82.031250
4086		72.265625
4087		76.171875
4088		68.359375
4089		74.218750
4090		62.500000
4091		72.265625
4092		60.546875
4093		70.312500
4094		56.640625
4095		64.453125
4096		52.734375
4097		62.500000
4098		46.875000
4099		56.640625
4100		42.968750
4101		52.734375
4102		41.015625
4103		48.828125
4104		35.156250
4105		41.015625
4106		29.296875
4107		37.109375
4108		25.390625
4109		35.156250
4110		19.531250
4111		29.296875
4112		13.671875
4113		25.390625
4114		7.812500
4115		19.531250
4116		5.859375
4117		15.625000
4118		1.953125
4119		11.718750
4120		-3.906250
4121		3.906250
4122		-9.765625
4123		-1.953125
4124		-15.625000
4125		-5.859375
4126		-19.531250
4127		-11.718750
4128		-25.390625
4129		-15.625000
4130		-29.296875
4131		-19.531250
4132		-35.156250
4133		-25.390625
4134		-41.015625
4135		-29.296875
4136		-42.968750
4137		-37.109375
4138		-46.875000
4139		-41.015625
4140		-54.687500
4141		-44.921875
4142		-58.593750
4143		-48.828125
4144		-62.500000
4145		-52.734375
4146		-66.406250
4147		-56.640625
4148		-72.265625
4149		-60.546875
4150		-74.218750
4151		-64.453125
4152		-76.171875
4153		-68.359375
4154		-78.125000
4155		-74.218750
4156		-83.984375
4157		-78.125000
4158		-85.937500
4159		-78.125000
4160		-89.843750
4161		-82.031250
4162		-91.796875
4163		-83.984375
4164		-95.703125
4165		-85.937500
4166		-97.656250
4167		-87.890625
4168		-97.656250
4169		-89.843750
4170		-97.656250
4171		-93.750000
4172		-97.656250
4173		-95.703125
4174		-101.562500
4175		-93.750000
4176		-101.562500
4177		-95.703125
4178		-103.515625
4179		-95.703125
4180		-103.515625
4181		-95.703125
4182		-101.562500
4183		-95.703125
4184		-101.562500
4185		-95.703125
4186		-101.562500
4187		-95.703125
4188		-97.656250
4189		-95.703125
4190		-99.609375
4191		-91.796875
4192		-97.656250
4193		-89.843750
4194		-95.703125
4195		-87.890625
4196		-93.750000
4197		-85.937500
4198		-91.796875
4199		-83.984375
4200		-89.843750
4201		-82.031250
4202		-87.890625
4203		-80.078125
4204		-82.031250
4205		-78.125000
4206		-78.125000
4207		-72.265625
4208		-76.171875
4209		-68.359375
4210		-74.218750
4211		-64.453125
4212		-70.312500
4213		-60.546875
4214		-66.406250
4215		-56.640625
4216		-62.500000
4217		-52.734375
4218		-58.593750
4219		-48.828125
4220		-50.781250
4221		-44.921875
4222		-46.875000
4223		-41.015625
4224		-41.015625
4225		-35.156250
4226		-39.062500
4227		-29.296875
4228		-33.203125
4229		-25.390625
4230		-27.343750
4231		-19.531250
4232		-23.437500
4233		-13.671875
4234		-19.531250
4235		-9.765625
4236		-15.625000
4237		-5.859375
4238		-7.812500
4239		-1.953125
4240		-1.953125
4241		5.859375
4242		0.000000
4243		11.718750
4244		5.859375
4245		15.625000
4246		9.765625
4247		19.531250
4248		15.625000
4249		25.390625
4250		19.531250
4251		29.296875
4252		25.390625
4253		33.203125
4254		33.203125
4255		37.109375
4256		37.109375
4257		42.968750
4258		39.062500
4259		48.828125
4260		44.921875
4261		52.734375
4262		48.828125
4263		54.687500
4264		54.687500
4265		60.546875
4266		58.593750
4267		62.500000
4268		60.546875
4269		68.359375
4270		62.500000
4271		70.312500
4272		68.359375
4273		74.218750
4274		72.265625
4275		80.078125
4276		74.218750
4277		82.031250
4278		78.125000
4279		83.984375
4280		82.031250
4281		87.890625
4282		83.984375
4283		87.890625
4284		85.937500
4285		93.750000
4286		87.890625
4287		93.750000
4288		91.796875
4289		95.703125
4290		93.750000
4291		95.703125
4292		95.703125
4293		97.656250
4294		95.703125
4295		99.609375
4296		97.656250
4297		101.562500
4298		99.609375
4299		101.562500
4300		99.609375
4301		101.562500
4302		99.609375
4303		103.515625
4304		101.562500
4305		103.515625
4306		101.562500
4307		103.515625
4308		99.609375
4309		103.515625
4310		101.562500
4311		103.515625
4312		99.609375
4313		103.515625
4314		99.609375
4315		101.562500
4316		97.656250
4317		101.562500
4318		97.656250
4319		101.562500
4320		95.703125
4321		99.609375
4322		93.750000
4323		97.656250
4324		91.796875
4325		95.703125
4326		89.843750
4327		95.703125
4328		87.890625
4329		91.796875
4330		85.937500
4331		89.843750
4332		83.984375
4333		87.890625
4334		82.031250
4335		85.937500
4336		78.125000
4337		82.031250
4338		74.218750
4339		80.078125
4340		72.265625
4341		76.171875
4342		68.359375
4343		74.218750
4344		64.453125
4345		70.312500
4346		60.546875
4347		66.406250
4348		56.640625
4349		62.500000
4350		52.734375
4351		58.593750
4352		48.828125
4353		54.687500
4354		44.921875
4355		50.781250
4356		39.062500
4357		44.921875
4358		35.156250
4359		41.015625
4360		29.296875
4361		37.109375
4362		25.390625
4363		31.250000
4364		19.531250
4365		27.343750
4366		15.625000
4367		21.484375
4368		9.765625
4369		17.578125
4370		5.859375
4371		11.718750
4372		0.000000
4373		5.859375
4374		-3.906250
4375		1.953125
4376		-9.765625
4377		-1.953125
4378		-15.625000
4379		-7.812500
4380		-19.531250
4381		-13.671875
4382		-25.390625
4383		-19.531250
4384		-31.250000
4385		-23.437500
4386		-35.156250
4387		-29.296875
4388		-39.062500
4389		-33.203125
4390		-44.921875
4391		-39.062500
4392		-48.828125
4393		-42.968750
4394		-52.734375
4395		-46.875000
4396		-56.640625
4397		-50.781250
4398		-62.500000
4399		-54.687500
4400		-66.406250
4401		-60.546875
4402		-70.312500
4403		-64.453125
4404		-72.265625
4405		-68.359375
4406		-76.171875
4407		-72.265625
4408		-80.078125
4409		-76.171875
4410		-82.031250
4411		-78.125000
4412		-85.937500
4413		-82.031250
4414		-87.890625
4415		-82.031250
4416		-91.796875
4417		-85.937500
4418		-91.796875
4419		-89.843750
4420		-95.703125
4421		-89.843750
4422		-95.703125
4423		-93.750000
4424		-97.656250
4425		-93.750000
4426		-99.609375
4427		-95.703125
4428		-99.609375
4429		-95.703125
4430		-99.609375
4431		-97.656250
4432		-99.609375
4433		-97.656250
4434		-99.609375
4435		-97.656250
4436		-99.609375
4437		-97.656250
4438		-99.609375
4439		-95.703125
4440		-97.656250
4441		-95.703125
4442		-97.656250
4443		-93.750000
4444		-95.703125
4445		-93.750000
4446		-95.703125
4447		-89.843750
4448		-93.750000
4449		-89.843750
4450		-91.796875
4451		-85.937500
4452		-89.843750
4453		-83.984375
4454		-85.937500
4455		-82.031250
4456		-83.984375
4457		-80.078125
4458		-80.078125
4459		-76.171875
4460		-78.125000
4461		-72.265625
4462		-74.218750
4463		-68.359375
4464		-70.312500
4465		-64.453125
4466		-68.359375
4467		-60.546875
4468		-62.500000
4469		-56.640625
4470		-58.593750
4471		-52.734375
4472		-54.687500
4473		-48.828125
4474		-48.828125
4475		-42.968750
4476		-44.921875
4477		-39.062500
4478		-41.015625
4479		-35.156250
4480		-35.156250
4481		-29.296875
4482		-31.250000
4483		-25.390625
4484		-25.390625
4485		-17.578125
4486		-21.484375
4487		-13.671875
4488		-15.625000
4489		-9.765625
4490		-11.718750
4491		-3.906250
4492		-5.859375
4493		0.000000
4494		0.000000
4495		5.859375
4496		3.906250
4497		9.765625
4498		7.812500
4499		15.625000
4500		13.671875
4501		21.484375
4502		19.531250
4503		25.390625
4504		23.437500
4505		31.250000
4506		29.296875
4507		35.156250
4508		33.203125
4509		39.062500
4510		37.109375
4511		42.968750
4512		42.968750
4513		48.828125
4514		46.875000
4515		52.734375
4516		50.781250
4517		56.640625
4518		54.687500
4519		60.546875
4520		58.593750
4521		64.453125
4522		62.500000
4523		68.359375
4524		66.406250
4525		72.265625
4526		70.312500
4527		76.171875
4528		74.218750
4529		78.125000
4530		76.171875
4531		82.031250
4532		80.078125
4533		83.984375
4534		82.031250
4535		87.890625
4536		85.937500
4537		89.843750
4538		87.890625
4539		91.796875
4540		89.843750
4541		93.750000
4542		91.796875
4543		95.703125
4544		91.796875
4545		97.656250
4546		95.703125
4547		99.609375
4548		97.656250
4549		101.562500
4550		97.656250
4551		101.562500
4552		99.609375
4553		101.562500
4554		99.609375
4555		103.515625
4556		99.609375
4557		103.515625
4558		101.562500
4559		103.515625
4560		101.562500
4561		103.515625
4562		101.562500
4563		103.515625
4564		99.609375
4565		103.515625
4566		99.609375
4567		103.515625
4568		99.609375
4569		103.515625
4570		97.656250
4571		101.562500
4572		97.656250
4573		101.562500
4574		95.703125
4575		99.609375
4576		93.750000
4577		97.656250
4578		91.796875
4579		95.703125
4580		91.796875
4581		93.750000
4582		87.890625
4583		91.796875
4584		85.937500
4585		89.843750
4586		83.984375
4587		87.890625
4588		80.078125
4589		85.937500
4590		78.125000
4591		82.031250
4592		74.218750
4593		78.125000
4594		70.312500
4595		76.171875
4596		66.406250
4597		72.265625
4598		62.500000
4599		68.359375
4600		60.546875
4601		64.453125
4602		56.640625
4603		62.500000
4604		50.781250
4605		56.640625
4606		46.875000
4607		52.734375
4608		42.968750
4609		48.828125
4610		37.109375
4611		44.921875
4612		33.203125
4613		39.062500
4614		29.296875
4615		35.156250
4616		23.437500
4617		29.296875
4618		19.531250
4619		27.343750
4620		13.671875
4621		21.484375
4622		9.765625
4623		15.625000
4624		3.906250
4625		9.765625
4626		0.000000
4627		5.859375
4628		-5.859375
4629		1.953125
4630		-11.718750
4631		-3.906250
4632		-15.625000
4633		-9.765625
4634		-21.484375
4635		-13.671875
4636		-25.390625
4637		-19.531250
4638		-31.250000
4639		-23.437500
4640		-35.156250
4641		-29.296875
4642		-41.015625
4643		-35.156250
4644		-44.921875
4645		-39.062500
4646		-50.781250
4647		-44.921875
4648		-54.687500
4649		-48.828125
4650		-58.593750
4651		-52.734375
4652		-62.500000
4653		-56.640625
4654		-66.406250
4655		-60.546875
4656		-70.312500
4657		-64.453125
4658		-74.218750
4659		-68.359375
4660		-78.125000
4661		-72.265625
4662		-80.078125
4663		-76.171875
4664		-83.984375
4665		-78.125000
4666		-85.937500
4667		-82.031250
4668		-87.890625
4669		-83.984375
4670		-89.843750
4671		-85.937500
4672		-93.750000
4673		-87.890625
4674		-93.750000
4675		-91.796875
4676		-95.703125
4677		-93.750000
4678		-97.656250
4679		-93.750000
4680		-99.609375
4681		-95.703125
4682		-99.609375
4683		-95.703125
4684		-99.609375
4685		-95.703125
4686		-99.609375
4687		-95.703125
4688		-99.609375
4689		-95.703125
4690		-99.609375
4691		-95.703125
4692		-97.656250
4693		-95.703125
4694		-97.656250
4695		-93.750000
4696		-97.656250
4697		-93.750000
4698		-95.703125
4699		-91.796875
4700		-93.750000
4701		-89.843750
4702		-91.796875
4703		-87.890625
4704		-89.843750
4705		-85.937500
4706		-87.890625
4707		-83.984375
4708		-83.984375
4709		-80.078125
4710		-82.031250
4711		-78.125000
4712		-78.125000
4713		-74.218750
4714		-76.171875
4715		-70.312500
4716		-72.265625
4717		-68.359375
4718		-68.359375
4719		-62.500000
4720		-64.453125
4721		-58.593750
4722		-62.500000
4723		-54.687500
4724		-56.640625
4725		-50.781250
4726		-52.734375
4727		-46.875000
4728		-46.875000
4729		-41.015625
4730		-42.968750
4731		-37.109375
4732		-39.062500
4733		-33.203125
4734		-33.203125
4735		-27.343750
4736		-29.296875
4737		-21.484375
4738		-23.437500
4739		-17.578125
4740		-19.531250
4741		-11.718750
4742		-13.671875
4743		-7.812500
4744		-7.812500
4745		-1.953125
4746		-3.906250
4747		3.906250
4748		1.953125
4749		7.812500
4750		5.859375
4751		13.671875
4752		11.718750
4753		17.578125
4754		15.625000
4755		23.437500
4756		21.484375
4757		27.343750
4758		25.390625
4759		31.250000
4760		31.250000
4761		37.109375
4762		35.156250
4763		42.968750
4764		41.015625
4765		44.921875
4766		44.921875
4767		50.781250
4768		48.828125
4769		54.687500
4770		52.734375
4771		58.593750
4772		56.640625
4773		62.500000
4774		60.546875
4775		66.406250
4776		64.453125
4777		70.312500
4778		68.359375
4779		74.218750
4780		72.265625
4781		76.171875
4782		76.171875
4783		80.078125
4784		78.125000
4785		82.031250
4786		80.078125
4787		85.937500
4788		83.984375
4789		87.890625
4790		85.937500
4791		91.796875
4792		87.890625
4793		91.796875
4794		91.796875
4795		93.750000
4796		91.796875
4797		97.656250
4798		93.750000
4799		97.656250
4800		95.703125
4801		99.609375
4802		95.703125
4803		101.562500
4804		99.609375
4805		101.562500
4806		99.609375
4807		103.515625
4808		99.609375
4809		103.515625
4810		101.562500
4811		103.515625
4812		99.609375
4813		105.468750
4814		99.609375
4815		103.515625
4816		101.562500
4817		103.515625
4818		101.562500
4819		103.515625
4820		99.609375
4821		103.515625
4822		99.609375
4823		103.515625
4824		97.656250
4825		101.562500
4826		97.656250
4827		99.609375
4828		93.750000
4829		99.609375
4830		93.750000
4831		97.656250
4832		91.796875
4833		95.703125
4834		89.843750
4835		93.750000
4836		85.937500
4837		93.750000
4838		85.937500
4839		89.843750
4840		82.031250
4841		85.937500
4842		80.078125
4843		83.984375
4844		76.171875
4845		82.031250
4846		72.265625
4847		78.125000
4848		70.312500
4849		76.171875
4850		66.406250
4851		72.265625
4852		62.500000
4853		68.359375
4854		58.593750
4855		64.453125
4856		54.687500
4857		60.546875
4858		50.781250
4859		56.640625
4860		46.875000
4861		50.781250
4862		41.015625
4863		46.875000
4864		37.109375
4865		42.968750
4866		31.250000
4867		39.062500
4868		27.343750
4869		33.203125
4870		21.484375
4871		29.296875
4872		17.578125
4873		23.437500
4874		11.718750
4875		19.531250
4876		7.812500
4877		13.671875
4878		1.953125
4879		9.765625
4880		-1.953125
4881		3.906250
4882		-7.812500
4883		-1.953125
4884		-11.718750
4885		-5.859375
4886		-17.578125
4887		-11.718750
4888		-23.437500
4889		-15.625000
4890		-27.343750
4891		-21.484375
4892		-33.203125
4893		-25.390625
4894		-37.109375
4895		-31.250000
4896		-42.968750
4897		-35.156250
4898		-46.875000
4899		-41.015625
4900		-50.781250
4901		-44.921875
4902		-56.640625
4903		-48.828125
4904		-58.593750
4905		-54.687500
4906		-64.453125
4907		-58.593750
4908		-68.359375
4909		-62.500000
4910		-70.312500
4911		-66.406250
4912		-74.218750
4913		-70.312500
4914		-78.125000
4915		-74.218750
4916		-82.031250
4917		-76.171875
4918		-83.984375
4919		-80.078125
4920		-87.890625
4921		-82.031250
4922		-89.843750
4923		-83.984375
4924		-91.796875
4925		-87.890625
4926		-93.750000
4927		-89.843750
4928		-95.703125
4929		-91.796875
4930		-97.656250
4931		-91.796875
4932		-97.656250
4933		-93.750000
4934		-99.609375
4935		-95.703125
4936		-97.656250
4937		-95.703125
4938		-99.609375
4939		-95.703125
4940		-99.609375
4941		-95.703125
4942		-99.609375
4943		-95.703125
4944		-99.609375
4945		-95.703125
4946		-99.609375
4947		-93.750000
4948		-97.656250
4949		-93.750000
4950		-97.656250
4951		-91.796875
4952		-93.750000
4953		-91.796875
4954		-91.796875
4955		-87.890625
4956		-89.843750
4957		-85.937500
4958		-89.843750
4959		-83.984375
4960		-85.937500
4961		-82.031250
4962		-83.984375
4963		-80.078125
4964		-82.031250
4965		-76.171875
4966		-78.125000
4967		-72.265625
4968		-74.218750
4969		-68.359375
4970		-72.265625
4971		-64.453125
4972		-66.406250
4973		-60.546875
4974		-62.500000
4975		-56.640625
4976		-58.593750
4977		-52.734375
4978		-54.687500
4979		-48.828125
4980		-50.781250
4981		-44.921875
4982		-44.921875
4983		-39.062500
4984		-41.015625
4985		-35.156250
4986		-37.109375
4987		-29.296875
4988		-31.250000
4989		-25.390625
4990		-27.343750
4991		-19.531250
4992		-21.484375
4993		-15.625000
4994		-15.625000
4995		-9.765625
4996		-11.718750
4997		-5.859375
4998		-7.812500
4999		0.000000
5000		-1.953125
5001		5.859375
5002		3.906250
5003		9.765625
5004		7.812500
5005		15.625000
5006		13.671875
5007		21.484375
5008		17.578125
5009		25.390625
5010		23.437500
5011		29.296875
5012		27.343750
5013		35.156250
5014		33.203125
5015		39.062500
5016		37.109375
5017		42.968750
5018		41.015625
5019		48.828125
5020		46.875000
5021		52.734375
5022		50.781250
5023		56.640625
5024		54.687500
5025		60.546875
5026		58.593750
5027		64.453125
5028		62.500000
5029		68.359375
5030		66.406250
5031		72.265625
5032		70.312500
5033		76.171875
5034		74.218750
5035		78.125000
5036		76.171875
5037		82.031250
5038		80.078125
5039		85.937500
5040		82.031250
5041		85.937500
5042		85.937500
5043		89.843750
5044		87.890625
5045		91.796875
5046		89.843750
5047		93.750000
5048		91.796875
5049		95.703125
5050		93.750000
5051		97.656250
5052		95.703125
5053		99.609375
5054		97.656250
5055		101.562500
5056		97.656250
5057		101.562500
5058		99.609375
5059		103.515625
5060		99.609375
5061		103.515625
5062		101.562500
5063		103.515625
5064		99.609375
5065		105.468750
5066		101.562500
5067		105.468750
5068		101.562500
5069		105.468750
5070		101.562500
5071		105.468750
5072		101.562500
5073		103.515625
5074		99.609375
5075		103.515625
5076		99.609375
5077		103.515625
5078		97.656250
5079		101.562500
5080		97.656250
5081		99.609375
5082		95.703125
5083		99.609375
5084		93.750000
5085		97.656250
5086		91.796875
5087		95.703125
5088		89.843750
5089		93.750000
5090		87.890625
5091		91.796875
5092		83.984375
5093		87.890625
5094		82.031250
5095		87.890625
5096		78.125000
5097		83.984375
5098		76.171875
5099		80.078125
5100		72.265625
5101		78.125000
5102		68.359375
5103		74.218750
5104		64.453125
5105		70.312500
5106		60.546875
5107		66.406250
5108		56.640625
5109		62.500000
5110		52.734375
5111		58.593750
5112		48.828125
5113		54.687500
5114		44.921875
5115		50.781250
5116		39.062500
5117		46.875000
5118		35.156250
5119		41.015625
5120		31.250000
5121		37.109375
5122		25.390625
5123		33.203125
5124		21.484375
5125		27.343750
5126		15.625000
5127		23.437500
5128		11.718750
5129		17.578125
5130		5.859375
5131		11.718750
5132		1.953125
5133		7.812500
5134		-3.906250
5135		1.953125
5136		-9.765625
5137		-1.953125
5138		-13.671875
5139		-7.812500
5140		-19.531250
5141		-11.718750
5142		-23.437500
5143		-17.578125
5144		-29.296875
5145		-23.437500
5146		-33.203125
5147		-27.343750
5148		-39.062500
5149		-33.203125
5150		-42.968750
5151		-37.109375
5152		-48.828125
5153		-41.015625
5154		-52.734375
5155		-46.875000
5156		-56.640625
5157		-50.781250
5158		-62.500000
5159		-54.687500
5160		-64.453125
5161		-58.593750
5162		-68.359375
5163		-64.453125
5164		-72.265625
5165		-66.406250
5166		-76.171875
5167		-70.312500
5168		-80.078125
5169		-74.218750
5170		-82.031250
5171		-78.125000
5172		-83.984375
5173		-80.078125
5174		-87.890625
5175		-83.984375
5176		-89.843750
5177		-85.937500
5178		-91.796875
5179		-87.890625
5180		-93.750000
5181		-89.843750
5182		-95.703125
5183		-91.796875
5184		-95.703125
5185		-93.750000
5186		-97.656250
5187		-93.750000
5188		-97.656250
5189		-95.703125
5190		-99.609375
5191		-95.703125
5192		-99.609375
5193		-95.703125
5194		-99.609375
5195		-95.703125
5196		-97.656250
5197		-95.703125
5198		-97.656250
5199		-95.703125
5200		-97.656250
5201		-93.750000
5202		-97.656250
5203		-91.796875
5204		-95.703125
5205		-91.796875
5206		-93.750000
5207		-89.843750
5208		-91.796875
5209		-87.890625
5210		-89.843750
5211		-85.937500
5212		-87.890625
5213		-83.984375
5214		-85.937500
5215		-82.031250
5216		-82.031250
5217		-78.125000
5218		-80.078125
5219		-74.218750
5220		-76.171875
5221		-72.265625
5222		-72.265625
5223		-68.359375
5224		-70.312500
5225		-62.500000
5226		-66.406250
5227		-60.546875
5228		-62.500000
5229		-56.640625
5230		-56.640625
5231		-52.734375
5232		-52.734375
5233		-46.875000
5234		-48.828125
5235		-42.968750
5236		-44.921875
5237		-37.109375
5238		-39.062500
5239		-33.203125
5240		-35.156250
5241		-27.343750
5242		-29.296875
5243		-23.437500
5244		-25.390625
5245		-17.578125
5246		-19.531250
5247		-13.671875
5248		-15.625000
5249		-7.812500
5250		-9.765625
5251		-3.906250
5252		-5.859375
5253		1.953125
5254		0.000000
5255		5.859375
5256		5.859375
5257		11.718750
5258		9.765625
5259		17.578125
5260		15.625000
5261		21.484375
5262		19.531250
5263		25.390625
5264		25.390625
5265		31.250000
5266		29.296875
5267		35.156250
5268		35.156250
5269		41.015625
5270		39.062500
5271		44.921875
5272		42.968750
5273		48.828125
5274		48.828125
5275		52.734375
5276		50.781250
5277		58.593750
5278		56.640625
5279		60.546875
5280		60.546875
5281		66.406250
5282		64.453125
5283		70.312500
5284		68.359375
5285		74.218750
5286		72.265625
5287		76.171875
5288		74.218750
5289		80.078125
5290		78.125000
5291		82.031250
5292		80.078125
5293		85.937500
5294		83.984375
5295		87.890625
5296		85.937500
5297		89.843750
5298		87.890625
5299		91.796875
5300		89.843750
5301		95.703125
5302		93.750000
5303		97.656250
5304		93.750000
5305		97.656250
5306		95.703125
5307		99.609375
5308		97.656250
5309		101.562500
5310		97.656250
5311		101.562500
5312		99.609375
5313		103.515625
5314		101.562500
5315		103.515625
5316		99.609375
5317		105.468750
5318		101.562500
5319		105.468750
5320		101.562500
5321		103.515625
5322		101.562500
5323		103.515625
5324		101.562500
5325		103.515625
5326		99.609375
5327		103.515625
5328		99.609375
5329		103.515625
5330		99.609375
5331		101.562500
5332		97.656250
5333		101.562500
5334		95.703125
5335		99.609375
5336		93.750000
5337		97.656250
5338		91.796875
5339		95.703125
5340		89.843750
5341		93.750000
5342		87.890625
5343		91.796875
5344		85.937500
5345		91.796875
5346		83.984375
5347		87.890625
5348		80.078125
5349		85.937500
5350		78.125000
5351		82.031250
5352		74.218750
5353		80.078125
5354		72.265625
5355		76.171875
5356		68.359375
5357		74.218750
5358		64.453125
5359		68.359375
5360		60.546875
5361		66.406250
5362		56.640625
5363		62.500000
5364		52.734375
5365		56.640625
5366		46.875000
5367		52.734375
5368		42.968750
5369		48.828125
5370		39.062500
5371		44.921875
5372		33.203125
5373		39.062500
5374		29.296875
5375		35.156250
5376		25.390625
5377		31.250000
5378		17.578125
5379		25.390625
5380		13.671875
5381		21.484375
5382		9.765625
5383		15.625000
5384		3.906250
5385		9.765625
5386		0.000000
5387		5.859375
5388		-5.859375
5389		0.000000
5390		-9.765625
5391		-3.906250
5392		-15.625000
5393		-7.812500
5394		-21.484375
5395		-13.671875
5396		-25.390625
5397		-19.531250
5398		-31.250000
5399		-25.390625
5400		-35.156250
5401		-29.296875
5402		-41.015625
5403		-33.203125
5404		-44.921875
5405		-39.062500
5406		-50.781250
5407		-42.968750
5408		-54.687500
5409		-46.875000
5410		-58.593750
5411		-52.734375
5412		-62.500000
5413		-56.640625
5414		-66.406250
5415		-60.546875
5416		-70.312500
5417		-64.453125
5418		-74.218750
5419		-68.359375
5420		-78.125000
5421		-72.265625
5422		-80.078125
5423		-76.171875
5424		-83.984375
5425		-78.125000
5426		-85.937500
5427		-82.031250
5428		-87.890625
5429		-83.984375
5430		-89.843750
5431		-85.937500
5432		-91.796875
5433		-87.890625
5434		-95.703125
5435		-89.843750
5436		-95.703125
5437		-91.796875
5438		-95.703125
5439		-93.750000
5440		-97.656250
5441		-93.750000
5442		-97.656250
5443		-93.750000
5444		-99.609375
5445		-95.703125
5446		-99.609375
5447		-95.703125
5448		-97.656250
5449		-95.703125
5450		-99.609375
5451		-95.703125
5452		-97.656250
5453		-93.750000
5454		-97.656250
5455		-93.750000
5456		-95.703125
5457		-93.750000
5458		-95.703125
5459		-91.796875
5460		-93.750000
5461		-89.843750
5462		-91.796875
5463		-85.937500
5464		-89.843750
5465		-85.937500
5466		-87.890625
5467		-82.031250
5468		-83.984375
5469		-80.078125
5470		-82.031250
5471		-76.171875
5472		-78.125000
5473		-74.218750
5474		-74.218750
5475		-70.312500
5476		-72.265625
5477		-66.406250
5478		-68.359375
5479		-62.500000
5480		-64.453125
5481		-58.593750
5482		-60.546875
5483		-54.687500
5484		-54.687500
5485		-50.781250
5486		-52.734375
5487		-44.921875
5488		-46.875000
5489		-41.015625
5490		-42.968750
5491		-37.109375
5492		-37.109375
5493		-31.250000
5494		-33.203125
5495		-27.343750
5496		-27.343750
5497		-21.484375
5498		-23.437500
5499		-15.625000
5500		-17.578125
5501		-11.718750
5502		-13.671875
5503		-5.859375
5504		-7.812500
5505		0.000000
5506		-3.906250
5507		3.906250
5508		1.953125
5509		9.765625
5510		7.812500
5511		13.671875
5512		11.718750
5513		17.578125
5514		15.625000
5515		23.437500
5516		21.484375
5517		27.343750
5518		27.343750
5519		33.203125
5520		31.250000
5521		39.062500
5522		35.156250
5523		42.968750
5524		41.015625
5525		46.875000
5526		44.921875
5527		50.781250
5528		48.828125
5529		54.687500
5530		54.687500
5531		58.593750
5532		58.593750
5533		62.500000
5534		62.500000
5535		68.359375
5536		66.406250
5537		70.312500
5538		68.359375
5539		74.218750
5540		72.265625
5541		76.171875
5542		76.171875
5543		80.078125
5544		78.125000
5545		83.984375
5546		82.031250
5547		87.890625
5548		83.984375
5549		87.890625
5550		87.890625
5551		91.796875
5552		89.843750
5553		93.750000
5554		91.796875
5555		95.703125
5556		93.750000
5557		97.656250
5558		95.703125
5559		99.609375
5560		95.703125
5561		99.609375
5562		97.656250
5563		101.562500
5564		99.609375
5565		103.515625
5566		101.562500
5567		103.515625
5568		99.609375
5569		103.515625
5570		101.562500
5571		105.468750
5572		101.562500
5573		103.515625
5574		101.562500
5575		103.515625
5576		101.562500
5577		105.468750
5578		101.562500
5579		103.515625
5580		99.609375
5581		103.515625
5582		99.609375
5583		103.515625
5584		99.609375
5585		101.562500
5586		97.656250
5587		101.562500
5588		95.703125
5589		99.609375
5590		93.750000
5591		97.656250
5592		91.796875
5593		95.703125
5594		89.843750
5595		93.750000
5596		87.890625
5597		91.796875
5598		85.937500
5599		89.843750
5600		82.031250
5601		87.890625
5602		80.078125
5603		83.984375
5604		76.171875
5605		82.031250
5606		74.218750
5607		78.125000
5608		70.312500
5609		76.171875
5610		66.406250
5611		72.265625
5612		62.500000
5613		68.359375
5614		58.593750
5615		64.453125
5616		54.687500
5617		60.546875
5618		50.781250
5619		56.640625
5620		46.875000
5621		52.734375
5622		41.015625
5623		48.828125
5624		37.109375
5625		42.968750
5626		33.203125
5627		39.062500
5628		27.343750
5629		33.203125
5630		23.437500
5631		29.296875
5632		17.578125
5633		23.437500
5634		13.671875
5635		19.531250
5636		7.812500
5637		13.671875
5638		1.953125
5639		9.765625
5640		-1.953125
5641		3.906250
5642		-7.812500
5643		0.000000
5644		-11.718750
5645		-5.859375
5646		-17.578125
5647		-9.765625
5648		-21.484375
5649		-15.625000
5650		-27.343750
5651		-21.484375
5652		-33.203125
5653		-25.390625
5654		-37.109375
5655		-31.250000
5656		-41.015625
5657		-35.156250
5658		-46.875000
5659		-39.062500
5660		-50.781250
5661		-44.921875
5662		-54.687500
5663		-48.828125
5664		-60.546875
5665		-52.734375
5666		-62.500000
5667		-58.593750
5668		-66.406250
5669		-62.500000
5670		-70.312500
5671		-64.453125
5672		-74.218750
5673		-70.312500
5674		-78.125000
5675		-72.265625
5676		-82.031250
5677		-76.171875
5678		-83.984375
5679		-78.125000
5680		-85.937500
5681		-82.031250
5682		-87.890625
5683		-83.984375
5684		-89.843750
5685		-87.890625
5686		-93.750000
5687		-89.843750
5688		-93.750000
5689		-89.843750
5690		-95.703125
5691		-91.796875
5692		-95.703125
5693		-93.750000
5694		-97.656250
5695		-93.750000
5696		-97.656250
5697		-95.703125
5698		-99.609375
5699		-95.703125
5700		-99.609375
5701		-95.703125
5702		-97.656250
5703		-95.703125
5704		-99.609375
5705		-95.703125
5706		-97.656250
5707		-93.750000
5708		-95.703125
5709		-93.750000
5710		-95.703125
5711		-91.796875
5712		-95.703125
5713		-89.843750
5714		-91.796875
5715		-87.890625
5716		-91.796875
5717		-85.937500
5718		-87.890625
5719		-83.984375
5720		-85.937500
5721		-82.031250
5722		-83.984375
5723		-78.125000
5724		-80.078125
5725		-76.171875
5726		-78.125000
5727		-72.265625
5728		-74.218750
5729		-68.359375
5730		-70.312500
5731		-64.453125
5732		-66.406250
5733		-60.546875
5734		-62.500000
5735		-56.640625
5736		-58.593750
5737		-52.734375
5738		-54.687500
5739		-48.828125
5740		-48.828125
5741		-44.921875
5742		-46.875000
5743		-39.062500
5744		-41.015625
5745		-35.156250
5746		-35.156250
5747		-29.296875
5748		-31.250000
5749		-23.437500
5750		-25.390625
5751		-19.531250
5752		-21.484375
5753		-15.625000
5754		-15.625000
5755		-9.765625
5756		-11.718750
5757		-5.859375
5758		-5.859375
5759		0.000000
5760		-1.953125
5761		5.859375
5762		3.906250
5763		9.765625
5764		9.765625
5765		15.625000
5766		13.671875
5767		19.531250
5768		19.531250
5769		25.390625
5770		23.437500
5771		31.250000
5772		29.296875
5773		35.156250
5774		33.203125
5775		39.062500
5776		37.109375
5777		42.968750
5778		42.968750
5779		48.828125
5780		46.875000
5781		52.734375
5782		50.781250
5783		56.640625
5784		54.687500
5785		60.546875
5786		58.593750
5787		64.453125
5788		62.500000
5789		68.359375
5790		66.406250
5791		72.265625
5792		70.312500
5793		76.171875
5794		72.265625
5795		78.125000
5796		76.171875
5797		82.031250
5798		80.078125
5799		83.984375
5800		82.031250
5801		87.890625
5802		85.937500
5803		89.843750
5804		87.890625
5805		91.796875
5806		89.843750
5807		93.750000
5808		91.796875
5809		95.703125
5810		93.750000
5811		97.656250
5812		95.703125
5813		99.609375
5814		97.656250
5815		99.609375
5816		97.656250
5817		103.515625
5818		99.609375
5819		101.562500
5820		101.562500
5821		103.515625
5822		101.562500
5823		105.468750
5824		101.562500
5825		105.468750
5826		101.562500
5827		105.468750
5828		101.562500
5829		105.468750
5830		101.562500
5831		105.468750
5832		101.562500
5833		105.468750
5834		101.562500
5835		103.515625
5836		99.609375
5837		101.562500
5838		97.656250
5839		103.515625
5840		97.656250
5841		99.609375
5842		95.703125
5843		99.609375
5844		93.750000
5845		97.656250
5846		91.796875
5847		95.703125
5848		89.843750
5849		93.750000
5850		87.890625
5851		91.796875
5852		85.937500
5853		89.843750
5854		82.031250
5855		85.937500
5856		80.078125
5857		83.984375
5858		76.171875
5859		82.031250
5860		72.265625
5861		78.125000
5862		68.359375
5863		76.171875
5864		66.406250
5865		72.265625
5866		62.500000
5867		68.359375
5868		58.593750
5869		62.500000
5870		54.687500
5871		58.593750
5872		48.828125
5873		54.687500
5874		44.921875
5875		50.781250
5876		41.015625
5877		46.875000
5878		35.156250
5879		42.968750
5880		31.250000
5881		37.109375
5882		25.390625
5883		33.203125
5884		21.484375
5885		29.296875
5886		15.625000
5887		23.437500
5888		11.718750
5889		17.578125
5890		5.859375
5891		13.671875
5892		1.953125
5893		7.812500
5894		-3.906250
5895		3.906250
5896		-7.812500
5897		-1.953125
5898		-13.671875
5899		-5.859375
5900		-19.531250
5901		-11.718750
5902		-23.437500
5903		-17.578125
5904		-29.296875
5905		-21.484375
5906		-35.156250
5907		-25.390625
5908		-39.062500
5909		-31.250000
5910		-42.968750
5911		-35.156250
5912		-48.828125
5913		-41.015625
5914		-52.734375
5915		-44.921875
5916		-56.640625
5917		-48.828125
5918		-60.546875
5919		-54.687500
5920		-64.453125
5921		-58.593750
5922		-68.359375
5923		-62.500000
5924		-72.265625
5925		-66.406250
5926		-76.171875
5927		-68.359375
5928		-78.125000
5929		-72.265625
5930		-82.031250
5931		-76.171875
5932		-85.937500
5933		-78.125000
5934		-85.937500
5935		-82.031250
5936		-89.843750
5937		-85.937500
5938		-91.796875
5939		-87.890625
5940		-93.750000
5941		-87.890625
5942		-95.703125
5943		-89.843750
5944		-97.656250
5945		-91.796875
5946		-97.656250
5947		-91.796875
5948		-97.656250
5949		-93.750000
5950		-99.609375
5951		-93.750000
5952		-97.656250
5953		-95.703125
5954		-97.656250
5955		-95.703125
5956		-99.609375
5957		-93.750000
5958		-99.609375
5959		-93.750000
5960		-97.656250
5961		-93.750000
5962		-97.656250
5963		-91.796875
5964		-95.703125
5965		-89.843750
5966		-93.750000
5967		-87.890625
5968		-91.796875
5969		-87.890625
5970		-89.843750
5971		-85.937500
5972		-85.937500
5973		-83.984375
5974		-83.984375
5975		-80.078125
5976		-82.031250
5977		-78.125000
5978		-78.125000
5979		-74.218750
5980		-76.171875
5981		-70.312500
5982		-72.265625
5983		-66.406250
5984		-68.359375
5985		-62.500000
5986		-64.453125
5987		-58.593750
5988		-60.546875
5989		-54.687500
5990		-56.640625
5991		-50.781250
5992		-54.687500
5993		-46.875000
5994		-48.828125
5995		-42.968750
5996		-42.968750
5997		-37.109375
5998		-39.062500
5999		-33.203125
6000		-33.203125
6001		-27.343750
6002		-29.296875
6003		-23.437500
6004		-23.437500
6005		-17.578125
6006		-19.531250
6007		-13.671875
6008		-13.671875
6009		-7.812500
6010		-9.765625
6011		-3.906250
6012		-3.906250
6013		1.953125
6014		0.000000
6015		7.812500
6016		5.859375
6017		11.718750
6018		11.718750
6019		17.578125
6020		15.625000
6021		21.484375
6022		21.484375
6023		27.343750
6024		25.390625
6025		31.250000
6026		29.296875
6027		37.109375
6028		35.156250
6029		41.015625
6030		39.062500
6031		44.921875
6032		44.921875
6033		48.828125
6034		48.828125
6035		54.687500
6036		52.734375
6037		58.593750
6038		56.640625
6039		62.500000
6040		60.546875
6041		66.406250
6042		64.453125
6043		70.312500
6044		68.359375
6045		72.265625
6046		72.265625
6047		76.171875
6048		74.218750
6049		80.078125
6050		78.125000
6051		82.031250
6052		82.031250
6053		85.937500
6054		83.984375
6055		87.890625
6056		85.937500
6057		89.843750
6058		89.843750
6059		93.750000
6060		91.796875
6061		95.703125
6062		93.750000
6063		97.656250
6064		95.703125
6065		97.656250
6066		97.656250
6067		99.609375
6068		97.656250
6069		101.562500
6070		99.609375
6071		101.562500
6072		99.609375
6073		105.468750
6074		97.656250
6075		107.421875
6076		99.609375
6077		107.421875
6078		99.609375
6079		107.421875
6080		103.515625
6081		105.468750
6082		101.562500
6083		105.468750
6084		101.562500
6085		103.515625
6086		101.562500
6087		103.515625
6088		101.562500
6089		103.515625
6090		97.656250
6091		105.468750
6092		95.703125
6093		103.515625
6094		93.750000
6095		103.515625
6096		95.703125
6097		97.656250
6098		93.750000
6099		97.656250
6100		91.796875
6101		95.703125
6102		89.843750
6103		93.750000
6104		85.937500
6105		91.796875
6106		80.078125
6107		89.843750
6108		76.171875
6109		87.890625
6110		76.171875
6111		85.937500
6112		74.218750
6113		83.984375
6114		72.265625
6115		76.171875
6116		68.359375
6117		72.265625
6118		64.453125
6119		70.312500
6120		60.546875
6121		66.406250
6122		56.640625
6123		62.500000
6124		48.828125
6125		60.546875
6126		46.875000
6127		56.640625
6128		42.968750
6129		52.734375
6130		39.062500
6131		44.921875
6132		35.156250
6133		41.015625
6134		29.296875
6135		35.156250
6136		25.390625
6137		31.250000
6138		19.531250
6139		25.390625
6140		11.718750
6141		21.484375
6142		7.812500
6143		19.531250
6144		1.953125
6145		13.671875
6146		0.000000
6147		7.812500
6148		-5.859375
6149		1.953125
6150		-9.765625
6151		-3.906250
6152		-15.625000
6153		-9.765625
6154		-19.531250
6155		-13.671875
6156		-25.390625
6157		-19.531250
6158		-33.203125
6159		-21.484375
6160		-39.062500
6161		-25.390625
6162		-41.015625
6163		-29.296875
6164		-44.921875
6165		-39.062500
6166		-48.828125
6167		-42.968750
6168		-52.734375
6169		-46.875000
6170		-56.640625
6171		-52.734375
6172		-62.500000
6173		-56.640625
6174		-68.359375
6175		-58.593750
6176		-72.265625
6177		-62.500000
6178		-76.171875
6179		-66.406250
6180		-76.171875
6181		-70.312500
6182		-80.078125
6183		-74.218750
6184		-82.031250
6185		-78.125000
6186		-83.984375
6187		-80.078125
6188		-87.890625
6189		-83.984375
6190		-91.796875
6191		-83.984375
6192		-93.750000
6193		-83.984375
6194		-95.703125
6195		-85.937500
6196		-97.656250
6197		-87.890625
6198		-95.703125
6199		-93.750000
6200		-97.656250
6201		-93.750000
6202		-97.656250
6203		-95.703125
6204		-97.656250
6205		-95.703125
6206		-97.656250
6207		-95.703125
6208		-101.562500
6209		-91.796875
6210		-101.562500
6211		-91.796875
6212		-99.609375
6213		-91.796875
6214		-95.703125
6215		-93.750000
6216		-95.703125
6217		-91.796875
6218		-93.750000
6219		-89.843750
6220		-91.796875
6221		-89.843750
6222		-89.843750
6223		-87.890625
6224		-89.843750
6225		-82.031250
6226		-89.843750
6227		-78.125000
6228		-85.937500
6229		-76.171875
6230		-83.984375
6231		-76.171875
6232		-78.125000
6233		-72.265625
6234		-74.218750
6235		-70.312500
6236		-70.312500
6237		-66.406250
6238		-66.406250
6239		-62.500000
6240		-62.500000
6241		-58.593750
6242		-62.500000
6243		-50.781250
6244		-58.593750
6245		-46.875000
6246		-54.687500
6247		-42.968750
6248		-46.875000
6249		-41.015625
6250		-41.015625
6251		-35.156250
6252		-37.109375
6253		-31.250000
6254		-31.250000
6255		-25.390625
6256		-27.343750
6257		-21.484375
6258		-21.484375
6259		-15.625000
6260		-17.578125
6261		-7.812500
6262		-11.718750
6263		-5.859375
6264		-7.812500
6265		0.000000
6266		-1.953125
6267		3.906250
6268		3.906250
6269		9.765625
6270		7.812500
6271		13.671875
6272		13.671875
6273		19.531250
6274		17.578125
6275		23.437500
6276		23.437500
6277		31.250000
6278		25.390625
6279		35.156250
6280		33.203125
6281		39.062500
6282		37.109375
6283		42.968750
6284		41.015625
6285		46.875000
6286		44.921875
6287		50.781250
6288		50.781250
6289		56.640625
6290		54.687500
6291		58.593750
6292		58.593750
6293		64.453125
6294		60.546875
6295		68.359375
6296		64.453125
6297		72.265625
6298		70.312500
6299		74.218750
6300		74.218750
6301		78.125000
6302		76.171875
6303		80.078125
6304		80.078125
6305		83.984375
6306		82.031250
6307		85.937500
6308		85.937500
6309		89.843750
6310		87.890625
6311		91.796875
6312		89.843750
6313		93.750000
6314		91.796875
6315		95.703125
6316		93.750000
6317		97.656250
6318		95.703125
6319		99.609375
6320		97.656250
6321		99.609375
6322		99.609375
6323		101.562500
6324		99.609375
6325		103.515625
6326		101.562500
6327		103.515625
6328		101.562500
6329		103.515625
6330		101.562500
6331		105.468750
6332		101.562500
6333		105.468750
6334		103.515625
6335		105.468750
6336		103.515625
6337		105.468750
6338		101.562500
6339		105.468750
6340		101.562500
6341		103.515625
6342		99.609375
6343		103.515625
6344		99.609375
6345		101.562500
6346		97.656250
6347		101.562500
6348		97.656250
6349		99.609375
6350		95.703125
6351		97.656250
6352		93.750000
6353		97.656250
6354		91.796875
6355		93.750000
6356		87.890625
6357		91.796875
6358		85.937500
6359		89.843750
6360		82.031250
6361		87.890625
6362		80.078125
6363		85.937500
6364		78.125000
6365		82.031250
6366		74.218750
6367		80.078125
6368		70.312500
6369		76.171875
6370		68.359375
6371		72.265625
6372		64.453125
6373		68.359375
6374		60.546875
6375		64.453125
6376		56.640625
6377		60.546875
6378		50.781250
6379		56.640625
6380		46.875000
6381		52.734375
6382		41.015625
6383		48.828125
6384		37.109375
6385		44.921875
6386		33.203125
6387		39.062500
6388		29.296875
6389		35.156250
6390		23.437500
6391		29.296875
6392		17.578125
6393		25.390625
6394		13.671875
6395		21.484375
6396		7.812500
6397		15.625000
6398		3.906250
6399		9.765625
6400		-1.953125
6401		5.859375
6402		-5.859375
6403		0.000000
6404		-11.718750
6405		-5.859375
6406		-17.578125
6407		-9.765625
6408		-23.437500
6409		-15.625000
6410		-27.343750
6411		-19.531250
6412		-31.250000
6413		-25.390625
6414		-37.109375
6415		-29.296875
6416		-41.015625
6417		-35.156250
6418		-46.875000
6419		-39.062500
6420		-48.828125
6421		-42.968750
6422		-54.687500
6423		-48.828125
6424		-58.593750
6425		-52.734375
6426		-62.500000
6427		-56.640625
6428		-66.406250
6429		-60.546875
6430		-70.312500
6431		-64.453125
6432		-74.218750
6433		-68.359375
6434		-76.171875
6435		-72.265625
6436		-80.078125
6437		-76.171875
6438		-82.031250
6439		-78.125000
6440		-85.937500
6441		-82.031250
6442		-87.890625
6443		-83.984375
6444		-89.843750
6445		-85.937500
6446		-91.796875
6447		-87.890625
6448		-93.750000
6449		-89.843750
6450		-95.703125
6451		-89.843750
6452		-95.703125
6453		-91.796875
6454		-95.703125
6455		-93.750000
6456		-97.656250
6457		-95.703125
6458		-97.656250
6459		-95.703125
6460		-99.609375
6461		-93.750000
6462		-97.656250
6463		-95.703125
6464		-97.656250
6465		-95.703125
6466		-97.656250
6467		-93.750000
6468		-95.703125
6469		-93.750000
6470		-93.750000
6471		-91.796875
6472		-93.750000
6473		-89.843750
6474		-91.796875
6475		-87.890625
6476		-89.843750
6477		-83.984375
6478		-87.890625
6479		-82.031250
6480		-85.937500
6481		-80.078125
6482		-82.031250
6483		-76.171875
6484		-80.078125
6485		-74.218750
6486		-76.171875
6487		-72.265625
6488		-72.265625
6489		-68.359375
6490		-70.312500
6491		-64.453125
6492		-64.453125
6493		-60.546875
6494		-64.453125
6495		-54.687500
6496		-58.593750
6497		-52.734375
6498		-52.734375
6499		-46.875000
6500		-48.828125
6501		-42.968750
6502		-44.921875
6503		-39.062500
6504		-39.062500
6505		-33.203125
6506		-35.156250
6507		-29.296875
6508		-29.296875
6509		-23.437500
6510		-25.390625
6511		-19.531250
6512		-21.484375
6513		-13.671875
6514		-15.625000
6515		-9.765625
6516		-9.765625
6517		-3.906250
6518		-5.859375
6519		0.000000
6520		0.000000
6521		5.859375
6522		3.906250
6523		11.718750
6524		9.765625
6525		15.625000
6526		15.625000
6527		21.484375
6528		19.531250
6529		27.343750
6530		23.437500
6531		31.250000
6532		29.296875
6533		35.156250
6534		33.203125
6535		41.015625
6536		39.062500
6537		44.921875
6538		42.968750
6539		48.828125
6540		46.875000
6541		52.734375
6542		52.734375
6543		56.640625
6544		54.687500
6545		60.546875
6546		60.546875
6547		64.453125
6548		64.453125
6549		68.359375
6550		68.359375
6551		72.265625
6552		70.312500
6553		76.171875
6554		74.218750
6555		80.078125
6556		78.125000
6557		82.031250
6558		80.078125
6559		85.937500
6560		83.984375
6561		87.890625
6562		85.937500
6563		89.843750
6564		89.843750
6565		91.796875
6566		91.796875
6567		93.750000
6568		93.750000
6569		97.656250
6570		95.703125
6571		97.656250
6572		97.656250
6573		99.609375
6574		97.656250
6575		101.562500
6576		99.609375
6577		103.515625
6578		99.609375
6579		103.515625
6580		101.562500
6581		103.515625
6582		101.562500
6583		105.468750
6584		103.515625
6585		105.468750
6586		103.515625
6587		105.468750
6588		103.515625
6589		105.468750
6590		103.515625
6591		105.468750
6592		101.562500
6593		105.468750
6594		101.562500
6595		103.515625
6596		99.609375
6597		103.515625
6598		99.609375
6599		101.562500
6600		97.656250
6601		101.562500
6602		97.656250
6603		99.609375
6604		93.750000
6605		97.656250
6606		91.796875
6607		95.703125
6608		89.843750
6609		93.750000
6610		87.890625
6611		91.796875
6612		85.937500
6613		89.843750
6614		82.031250
6615		87.890625
6616		80.078125
6617		83.984375
6618		76.171875
6619		82.031250
6620		74.218750
6621		78.125000
6622		70.312500
6623		74.218750
6624		66.406250
6625		72.265625
6626		62.500000
6627		68.359375
6628		58.593750
6629		64.453125
6630		54.687500
6631		60.546875
6632		50.781250
6633		56.640625
6634		46.875000
6635		50.781250
6636		41.015625
6637		46.875000
6638		37.109375
6639		42.968750
6640		31.250000
6641		37.109375
6642		27.343750
6643		33.203125
6644		21.484375
6645		29.296875
6646		17.578125
6647		23.437500
6648		11.718750
6649		17.578125
6650		7.812500
6651		13.671875
6652		1.953125
6653		7.812500
6654		-1.953125
6655		3.906250
6656		-7.812500
6657		-1.953125
6658		-13.671875
6659		-5.859375
6660		-17.578125
6661		-11.718750
6662		-23.437500
6663		-15.625000
6664		-27.343750
6665		-21.484375
6666		-33.203125
6667		-27.343750
6668		-37.109375
6669		-31.250000
6670		-42.968750
6671		-37.109375
6672		-46.875000
6673		-41.015625
6674		-50.781250
6675		-44.921875
6676		-54.687500
6677		-50.781250
6678		-58.593750
6679		-54.687500
6680		-64.453125
6681		-58.593750
6682		-68.359375
6683		-62.500000
6684		-70.312500
6685		-66.406250
6686		-74.218750
6687		-70.312500
6688		-78.125000
6689		-74.218750
6690		-80.078125
6691		-76.171875
6692		-83.984375
6693		-80.078125
6694		-87.890625
6695		-82.031250
6696		-89.843750
6697		-83.984375
6698		-89.843750
6699		-85.937500
6700		-91.796875
6701		-89.843750
6702		-93.750000
6703		-89.843750
6704		-95.703125
6705		-91.796875
6706		-95.703125
6707		-93.750000
6708		-97.656250
6709		-93.750000
6710		-97.656250
6711		-95.703125
6712		-99.609375
6713		-93.750000
6714		-99.609375
6715		-93.750000
6716		-97.656250
6717		-95.703125
6718		-97.656250
6719		-93.750000
6720		-95.703125
6721		-93.750000
6722		-95.703125
6723		-91.796875
6724		-93.750000
6725		-91.796875
6726		-91.796875
6727		-89.843750
6728		-91.796875
6729		-85.937500
6730		-89.843750
6731		-83.984375
6732		-85.937500
6733		-82.031250
6734		-83.984375
6735		-80.078125
6736		-82.031250
6737		-76.171875
6738		-78.125000
6739		-74.218750
6740		-74.218750
6741		-70.312500
6742		-72.265625
6743		-66.406250
6744		-68.359375
6745		-62.500000
6746		-66.406250
6747		-56.640625
6748		-62.500000
6749		-54.687500
6750		-56.640625
6751		-50.781250
6752		-52.734375
6753		-46.875000
6754		-46.875000
6755		-41.015625
6756		-42.968750
6757		-37.109375
6758		-39.062500
6759		-31.250000
6760		-33.203125
6761		-27.343750
6762		-29.296875
6763		-21.484375
6764		-23.437500
6765		-17.578125
6766		-19.531250
6767		-11.718750
6768		-13.671875
6769		-7.812500
6770		-7.812500
6771		-1.953125
6772		-3.906250
6773		3.906250
6774		1.953125
6775		7.812500
6776		5.859375
6777		13.671875
6778		11.718750
6779		19.531250
6780		15.625000
6781		25.390625
6782		19.531250
6783		27.343750
6784		25.390625
6785		33.203125
6786		31.250000
6787		37.109375
6788		35.156250
6789		41.015625
6790		41.015625
6791		46.875000
6792		44.921875
6793		50.781250
6794		48.828125
6795		54.687500
6796		52.734375
6797		58.593750
6798		56.640625
6799		62.500000
6800		62.500000
6801		66.406250
6802		66.406250
6803		70.312500
6804		68.359375
6805		74.218750
6806		72.265625
6807		76.171875
6808		76.171875
6809		80.078125
6810		78.125000
6811		83.984375
6812		82.031250
6813		87.890625
6814		83.984375
6815		89.843750
6816		87.890625
6817		91.796875
6818		89.843750
6819		93.750000
6820		91.796875
6821		95.703125
6822		93.750000
6823		97.656250
6824		95.703125
6825		99.609375
6826		97.656250
6827		99.609375
6828		99.609375
6829		101.562500
6830		97.656250
6831		103.515625
6832		99.609375
6833		105.468750
6834		101.562500
6835		103.515625
6836		101.562500
6837		105.468750
6838		103.515625
6839		105.468750
6840		103.515625
6841		105.468750
6842		103.515625
6843		105.468750
6844		103.515625
6845		105.468750
6846		99.609375
6847		105.468750
6848		99.609375
6849		105.468750
6850		99.609375
6851		103.515625
6852		99.609375
6853		101.562500
6854		97.656250
6855		99.609375
6856		95.703125
6857		99.609375
6858		93.750000
6859		97.656250
6860		91.796875
6861		95.703125
6862		87.890625
6863		93.750000
6864		85.937500
6865		93.750000
6866		83.984375
6867		91.796875
6868		82.031250
6869		85.937500
6870		78.125000
6871		83.984375
6872		76.171875
6873		80.078125
6874		72.265625
6875		78.125000
6876		68.359375
6877		74.218750
6878		64.453125
6879		70.312500
6880		60.546875
6881		66.406250
6882		56.640625
6883		62.500000
6884		52.734375
6885		58.593750
6886		48.828125
6887		54.687500
6888		44.921875
6889		50.781250
6890		39.062500
6891		44.921875
6892		35.156250
6893		41.015625
6894		31.250000
6895		37.109375
6896		25.390625
6897		31.250000
6898		21.484375
6899		27.343750
6900		15.625000
6901		21.484375
6902		11.718750
6903		17.578125
6904		5.859375
6905		11.718750
6906		0.000000
6907		7.812500
6908		-3.906250
6909		1.953125
6910		-9.765625
6911		-3.906250
6912		-15.625000
6913		-7.812500
6914		-19.531250
6915		-13.671875
6916		-23.437500
6917		-17.578125
6918		-29.296875
6919		-23.437500
6920		-35.156250
6921		-27.343750
6922		-39.062500
6923		-33.203125
6924		-42.968750
6925		-37.109375
6926		-48.828125
6927		-42.968750
6928		-52.734375
6929		-46.875000
6930		-56.640625
6931		-50.781250
6932		-60.546875
6933		-54.687500
6934		-64.453125
6935		-60.546875
6936		-68.359375
6937		-64.453125
6938		-72.265625
6939		-66.406250
6940		-76.171875
6941		-70.312500
6942		-78.125000
6943		-74.218750
6944		-82.031250
6945		-78.125000
6946		-83.984375
6947		-80.078125
6948		-85.937500
6949		-82.031250
6950		-87.890625
6951		-85.937500
6952		-89.843750
6953		-87.890625
6954		-91.796875
6955		-89.843750
6956		-93.750000
6957		-91.796875
6958		-95.703125
6959		-91.796875
6960		-95.703125
6961		-93.750000
6962		-97.656250
6963		-93.750000
6964		-97.656250
6965		-95.703125
6966		-97.656250
6967		-95.703125
6968		-97.656250
6969		-95.703125
6970		-97.656250
6971		-95.703125
6972		-95.703125
6973		-93.750000
6974		-95.703125
6975		-93.750000
6976		-93.750000
6977		-91.796875
6978		-93.750000
6979		-89.843750
6980		-91.796875
6981		-87.890625
6982		-89.843750
6983		-85.937500
6984		-87.890625
6985		-83.984375
6986		-85.937500
6987		-82.031250
6988		-82.031250
6989		-78.125000
6990		-80.078125
6991		-76.171875
6992		-76.171875
6993		-72.265625
6994		-74.218750
6995		-68.359375
6996		-70.312500
6997		-64.453125
6998		-66.406250
6999		-60.546875
7000		-62.500000
7001		-56.640625
7002		-58.593750
7003		-52.734375
7004		-54.687500
7005		-48.828125
7006		-50.781250
7007		-44.921875
7008		-44.921875
7009		-39.062500
7010		-41.015625
7011		-35.156250
7012		-37.109375
7013		-31.250000
7014		-31.250000
7015		-25.390625
7016		-27.343750
7017		-19.531250
7018		-21.484375
7019		-15.625000
7020		-17.578125
7021		-9.765625
7022		-11.718750
7023		-5.859375
7024		-5.859375
7025		0.000000
7026		-1.953125
7027		3.906250
7028		3.906250
7029		9.765625
7030		7.812500
7031		15.625000
7032		13.671875
7033		19.531250
7034		17.578125
7035		25.390625
7036		23.437500
7037		29.296875
7038		27.343750
7039		33.203125
7040		33.203125
7041		39.062500
7042		37.109375
7043		42.968750
7044		42.968750
7045		46.875000
7046		46.875000
7047		52.734375
7048		50.781250
7049		56.640625
7050		54.687500
7051		60.546875
7052		58.593750
7053		64.453125
7054		62.500000
7055		68.359375
7056		66.406250
7057		72.265625
7058		70.312500
7059		74.218750
7060		74.218750
7061		78.125000
7062		76.171875
7063		82.031250
7064		80.078125
7065		83.984375
7066		83.984375
7067		87.890625
7068		85.937500
7069		89.843750
7070		87.890625
7071		91.796875
7072		89.843750
7073		93.750000
7074		91.796875
7075		95.703125
7076		93.750000
7077		97.656250
7078		95.703125
7079		99.609375
7080		97.656250
7081		101.562500
7082		99.609375
7083		101.562500
7084		99.609375
7085		103.515625
7086		101.562500
7087		103.515625
7088		101.562500
7089		103.515625
7090		101.562500
7091		105.468750
7092		101.562500
7093		105.468750
7094		103.515625
7095		105.468750
7096		101.562500
7097		105.468750
7098		101.562500
7099		105.468750
7100		101.562500
7101		103.515625
7102		101.562500
7103		103.515625
7104		99.609375
7105		101.562500
7106		97.656250
7107		101.562500
7108		97.656250
7109		99.609375
7110		95.703125
7111		97.656250
7112		93.750000
7113		95.703125
7114		91.796875
7115		93.750000
7116		87.890625
7117		91.796875
7118		85.937500
7119		89.843750
7120		83.984375
7121		87.890625
7122		80.078125
7123		85.937500
7124		78.125000
7125		82.031250
7126		74.218750
7127		78.125000
7128		70.312500
7129		76.171875
7130		66.406250
7131		72.265625
7132		62.500000
7133		68.359375
7134		58.593750
7135		64.453125
7136		54.687500
7137		60.546875
7138		50.781250
7139		56.640625
7140		46.875000
7141		52.734375
7142		42.968750
7143		48.828125
7144		37.109375
7145		42.968750
7146		33.203125
7147		39.062500
7148		29.296875
7149		35.156250
7150		23.437500
7151		29.296875
7152		17.578125
7153		25.390625
7154		13.671875
7155		19.531250
7156		7.812500
7157		13.671875
7158		3.906250
7159		9.765625
7160		-1.953125
7161		3.906250
7162		-7.812500
7163		0.000000
7164		-11.718750
7165		-5.859375
7166		-17.578125
7167		-9.765625
7168		-21.484375
7169		-15.625000
7170		-27.343750
7171		-21.484375
7172		-33.203125
7173		-25.390625
7174		-37.109375
7175		-31.250000
7176		-41.015625
7177		-35.156250
7178		-44.921875
7179		-41.015625
7180		-50.781250
7181		-44.921875
7182		-54.687500
7183		-48.828125
7184		-58.593750
7185		-52.734375
7186		-62.500000
7187		-56.640625
7188		-66.406250
7189		-62.500000
7190		-70.312500
7191		-66.406250
7192		-74.218750
7193		-70.312500
7194		-76.171875
7195		-72.265625
7196		-80.078125
7197		-76.171875
7198		-82.031250
7199		-78.125000
7200		-85.937500
7201		-82.031250
7202		-87.890625
7203		-83.984375
7204		-89.843750
7205		-85.937500
7206		-91.796875
7207		-87.890625
7208		-93.750000
7209		-91.796875
7210		-95.703125
7211		-91.796875
7212		-95.703125
7213		-93.750000
7214		-97.656250
7215		-95.703125
7216		-97.656250
7217		-95.703125
7218		-97.656250
7219		-95.703125
7220		-97.656250
7221		-95.703125
7222		-97.656250
7223		-95.703125
7224		-97.656250
7225		-95.703125
7226		-97.656250
7227		-93.750000
7228		-95.703125
7229		-93.750000
7230		-93.750000
7231		-91.796875
7232		-93.750000
7233		-89.843750
7234		-91.796875
7235		-87.890625
7236		-89.843750
7237		-85.937500
7238		-87.890625
7239		-83.984375
7240		-85.937500
7241		-82.031250
7242		-82.031250
7243		-78.125000
7244		-80.078125
7245		-76.171875
7246		-76.171875
7247		-72.265625
7248		-72.265625
7249		-68.359375
7250		-70.312500
7251		-64.453125
7252		-66.406250
7253		-60.546875
7254		-62.500000
7255		-56.640625
7256		-58.593750
7257		-52.734375
7258		-54.687500
7259		-48.828125
7260		-48.828125
7261		-42.968750
7262		-44.921875
7263		-39.062500
7264		-39.062500
7265		-33.203125
7266		-35.156250
7267		-29.296875
7268		-31.250000
7269		-25.390625
7270		-25.390625
7271		-19.531250
7272		-21.484375
7273		-13.671875
7274		-15.625000
7275		-9.765625
7276		-9.765625
7277		-3.906250
7278		-5.859375
7279		0.000000
7280		0.000000
7281		5.859375
7282		3.906250
7283		9.765625
7284		9.765625
7285		15.625000
7286		13.671875
7287		19.531250
7288		19.531250
7289		25.390625
7290		23.437500
7291		29.296875
7292		29.296875
7293		35.156250
7294		33.203125
7295		39.062500
7296		39.062500
7297		44.921875
7298		42.968750
7299		48.828125
7300		46.875000
7301		52.734375
7302		50.781250
7303		56.640625
7304		56.640625
7305		60.546875
7306		60.546875
7307		64.453125
7308		64.453125
7309		68.359375
7310		66.406250
7311		72.265625
7312		70.312500
7313		76.171875
7314		74.218750
7315		78.125000
7316		78.125000
7317		82.031250
7318		80.078125
7319		83.984375
7320		83.984375
7321		87.890625
7322		85.937500
7323		89.843750
7324		87.890625
7325		91.796875
7326		89.843750
7327		93.750000
7328		93.750000
7329		95.703125
7330		93.750000
7331		97.656250
7332		95.703125
7333		99.609375
7334		97.656250
7335		101.562500
7336		99.609375
7337		101.562500
7338		99.609375
7339		103.515625
7340		101.562500
7341		103.515625
7342		101.562500
7343		103.515625
7344		101.562500
7345		103.515625
7346		101.562500
7347		105.468750
7348		103.515625
7349		103.515625
7350		101.562500
7351		103.515625
7352		101.562500
7353		103.515625
7354		101.562500
7355		103.515625
7356		99.609375
7357		103.515625
7358		99.609375
7359		101.562500
7360		97.656250
7361		99.609375
7362		95.703125
7363		99.609375
7364		93.750000
7365		97.656250
7366		91.796875
7367		95.703125
7368		89.843750
7369		93.750000
7370		87.890625
7371		91.796875
7372		83.984375
7373		89.843750
7374		82.031250
7375		85.937500
7376		80.078125
7377		83.984375
7378		76.171875
7379		80.078125
7380		72.265625
7381		78.125000
7382		70.312500
7383		74.218750
7384		66.406250
7385		70.312500
7386		62.500000
7387		66.406250
7388		58.593750
7389		62.500000
7390		54.687500
7391		58.593750
7392		48.828125
7393		54.687500
7394		44.921875
7395		50.781250
7396		41.015625
7397		46.875000
7398		35.156250
7399		41.015625
7400		31.250000
7401		37.109375
7402		25.390625
7403		33.203125
7404		21.484375
7405		27.343750
7406		15.625000
7407		23.437500
7408		11.718750
7409		17.578125
7410		5.859375
7411		13.671875
7412		1.953125
7413		7.812500
7414		-3.906250
7415		1.953125
7416		-7.812500
7417		-1.953125
7418		-13.671875
7419		-7.812500
7420		-19.531250
7421		-11.718750
7422		-23.437500
7423		-17.578125
7424		-29.296875
7425		-23.437500
7426		-33.203125
7427		-27.343750
7428		-39.062500
7429		-31.250000
7430		-42.968750
7431		-37.109375
7432		-46.875000
7433		-41.015625
7434		-52.734375
7435		-46.875000
7436		-56.640625
7437		-50.781250
7438		-60.546875
7439		-54.687500
7440		-64.453125
7441		-58.593750
7442		-68.359375
7443		-62.500000
7444		-72.265625
7445		-66.406250
7446		-74.218750
7447		-70.312500
7448		-78.125000
7449		-74.218750
7450		-82.031250
7451		-76.171875
7452		-83.984375
7453		-80.078125
7454		-85.937500
7455		-82.031250
7456		-89.843750
7457		-85.937500
7458		-89.843750
7459		-87.890625
7460		-91.796875
7461		-89.843750
7462		-93.750000
7463		-91.796875
7464		-95.703125
7465		-91.796875
7466		-95.703125
7467		-93.750000
7468		-97.656250
7469		-95.703125
7470		-97.656250
7471		-95.703125
7472		-97.656250
7473		-95.703125
7474		-97.656250
7475		-95.703125
7476		-97.656250
7477		-95.703125
7478		-97.656250
7479		-95.703125
7480		-95.703125
7481		-93.750000
7482		-95.703125
7483		-93.750000
7484		-93.750000
7485		-91.796875
7486		-91.796875
7487		-89.843750
7488		-91.796875
7489		-87.890625
7490		-89.843750
7491		-85.937500
7492		-85.937500
7493		-82.031250
7494		-83.984375
7495		-80.078125
7496		-82.031250
7497		-78.125000
7498		-78.125000
7499		-74.218750
7500		-74.218750
7501		-70.312500
7502		-72.265625
7503		-66.406250
7504		-68.359375
7505		-62.500000
7506		-64.453125
7507		-58.593750
7508		-60.546875
7509		-54.687500
7510		-56.640625
7511		-50.781250
7512		-52.734375
7513		-46.875000
7514		-46.875000
7515		-41.015625
7516		-42.968750
7517		-37.109375
7518		-39.062500
7519		-31.250000
7520		-33.203125
7521		-27.343750
7522		-29.296875
7523		-23.437500
7524		-23.437500
7525		-17.578125
7526		-19.531250
7527		-13.671875
7528		-13.671875
7529		-7.812500
7530		-9.765625
7531		-1.953125
7532		-3.906250
7533		1.953125
7534		1.953125
7535		7.812500
7536		5.859375
7537		11.718750
7538		11.718750
7539		17.578125
7540		15.625000
7541		21.484375
7542		21.484375
7543		27.343750
7544		25.390625
7545		31.250000
7546		31.250000
7547		37.109375
7548		35.156250
7549		41.015625
7550		41.015625
7551		44.921875
7552		44.921875
7553		50.781250
7554		48.828125
7555		54.687500
7556		52.734375
7557		58.593750
7558		56.640625
7559		62.500000
7560		60.546875
7561		66.406250
7562		64.453125
7563		70.312500
7564		68.359375
7565		74.218750
7566		72.265625
7567		76.171875
7568		76.171875
7569		80.078125
7570		78.125000
7571		82.031250
7572		82.031250
7573		85.937500
7574		83.984375
7575		87.890625
7576		85.937500
7577		91.796875
7578		89.843750
7579		93.750000
7580		91.796875
7581		95.703125
7582		93.750000
7583		97.656250
7584		95.703125
7585		99.609375
7586		95.703125
7587		99.609375
7588		97.656250
7589		101.562500
7590		99.609375
7591		101.562500
7592		101.562500
7593		103.515625
7594		101.562500
7595		103.515625
7596		101.562500
7597		105.468750
7598		103.515625
7599		103.515625
7600		103.515625
7601		105.468750
7602		101.562500
7603		105.468750
7604		101.562500
7605		103.515625
7606		101.562500
7607		103.515625
7608		101.562500
7609		103.515625
7610		99.609375
7611		101.562500
7612		97.656250
7613		101.562500
7614		97.656250
7615		99.609375
7616		95.703125
7617		97.656250
7618		93.750000
7619		97.656250
7620		91.796875
7621		95.703125
7622		89.843750
7623		93.750000
7624		85.937500
7625		89.843750
7626		83.984375
7627		87.890625
7628		82.031250
7629		85.937500
7630		78.125000
7631		83.984375
7632		76.171875
7633		80.078125
7634		72.265625
7635		76.171875
7636		68.359375
7637		72.265625
7638		64.453125
7639		68.359375
7640		60.546875
7641		64.453125
7642		56.640625
7643		62.500000
7644		52.734375
7645		56.640625
7646		48.828125
7647		54.687500
7648		42.968750
7649		48.828125
7650		39.062500
7651		44.921875
7652		35.156250
7653		41.015625
7654		29.296875
7655		35.156250
7656		25.390625
7657		31.250000
7658		19.531250
7659		25.390625
7660		15.625000
7661		21.484375
7662		9.765625
7663		15.625000
7664		3.906250
7665		11.718750
7666		0.000000
7667		5.859375
7668		-5.859375
7669		0.000000
7670		-9.765625
7671		-3.906250
7672		-15.625000
7673		-9.765625
7674		-19.531250
7675		-13.671875
7676		-25.390625
7677		-19.531250
7678		-29.296875
7679		-23.437500
7680		-35.156250
7681		-29.296875
7682		-39.062500
7683		-33.203125
7684		-44.921875
7685		-39.062500
7686		-48.828125
7687		-42.968750
7688		-52.734375
7689		-46.875000
7690		-58.593750
7691		-52.734375
7692		-62.500000
7693		-56.640625
7694		-66.406250
7695		-60.546875
7696		-70.312500
7697		-64.453125
7698		-72.265625
7699		-68.359375
7700		-76.171875
7701		-72.265625
7702		-80.078125
7703		-74.218750
7704		-82.031250
7705		-78.125000
7706		-85.937500
7707		-82.031250
7708		-87.890625
7709		-83.984375
7710		-89.843750
7711		-85.937500
7712		-91.796875
7713		-87.890625
7714		-93.750000
7715		-89.843750
7716		-95.703125
7717		-91.796875
7718		-95.703125
7719		-93.750000
7720		-97.656250
7721		-93.750000
7722		-97.656250
7723		-95.703125
7724		-101.562500
7725		-93.750000
7726		-97.656250
7727		-95.703125
7728		-99.609375
7729		-93.750000
7730		-97.656250
7731		-95.703125
7732		-97.656250
7733		-95.703125
7734		-95.703125
7735		-93.750000
7736		-95.703125
7737		-91.796875
7738		-93.750000
7739		-91.796875
7740		-91.796875
7741		-85.937500
7742		-91.796875
7743		-85.937500
7744		-87.890625
7745		-83.984375
7746		-87.890625
7747		-82.031250
7748		-83.984375
7749		-76.171875
7750		-80.078125
7751		-76.171875
7752		-78.125000
7753		-72.265625
7754		-74.218750
7755		-68.359375
7756		-72.265625
7757		-66.406250
7758		-68.359375
7759		-62.500000
7760		-62.500000
7761		-58.593750
7762		-58.593750
7763		-52.734375
7764		-54.687500
7765		-48.828125
7766		-52.734375
7767		-44.921875
7768		-46.875000
7769		-41.015625
7770		-41.015625
7771		-35.156250
7772		-37.109375
7773		-29.296875
7774		-31.250000
7775		-25.390625
7776		-29.296875
7777		-21.484375
7778		-21.484375
7779		-15.625000
7780		-17.578125
7781		-11.718750
7782		-11.718750
7783		-5.859375
7784		-7.812500
7785		0.000000
7786		-1.953125
7787		3.906250
7788		1.953125
7789		9.765625
7790		7.812500
7791		13.671875
7792		11.718750
7793		19.531250
7794		17.578125
7795		23.437500
7796		21.484375
7797		29.296875
7798		27.343750
7799		33.203125
7800		29.296875
7801		39.062500
7802		37.109375
7803		42.968750
7804		41.015625
7805		48.828125
7806		44.921875
7807		52.734375
7808		48.828125
7809		56.640625
7810		54.687500
7811		60.546875
7812		58.593750
7813		66.406250
7814		60.546875
7815		68.359375
7816		64.453125
7817		72.265625
7818		70.312500
7819		74.218750
7820		72.265625
7821		78.125000
7822		76.171875
7823		82.031250
7824		78.125000
7825		85.937500
7826		82.031250
7827		85.937500
7828		83.984375
7829		89.843750
7830		85.937500
7831		93.750000
7832		87.890625
7833		97.656250
7834		91.796875
7835		95.703125
7836		93.750000
7837		97.656250
7838		95.703125
7839		99.609375
7840		93.750000
7841		103.515625
7842		99.609375
7843		103.515625
7844		99.609375
7845		101.562500
7846		97.656250
7847		107.421875
7848		99.609375
7849		107.421875
7850		99.609375
7851		107.421875
7852		103.515625
7853		105.468750
7854		101.562500
7855		105.468750
7856		99.609375
7857		107.421875
7858		99.609375
7859		107.421875
7860		101.562500
7861		105.468750
7862		97.656250
7863		103.515625
7864		95.703125
7865		105.468750
7866		93.750000
7867		103.515625
7868		95.703125
7869		99.609375
7870		95.703125
7871		97.656250
7872		91.796875
7873		97.656250
7874		87.890625
7875		95.703125
7876		87.890625
7877		93.750000
7878		85.937500
7879		89.843750
7880		78.125000
7881		89.843750
7882		80.078125
7883		87.890625
7884		76.171875
7885		83.984375
7886		74.218750
7887		78.125000
7888		70.312500
7889		76.171875
7890		64.453125
7891		72.265625
7892		62.500000
7893		68.359375
7894		58.593750
7895		64.453125
7896		52.734375
7897		60.546875
7898		48.828125
7899		60.546875
7900		42.968750
7901		52.734375
7902		42.968750
7903		46.875000
7904		37.109375
7905		42.968750
7906		31.250000
7907		39.062500
7908		27.343750
7909		37.109375
7910		23.437500
7911		29.296875
7912		17.578125
7913		23.437500
7914		9.765625
7915		21.484375
7916		5.859375
7917		13.671875
7918		3.906250
7919		9.765625
7920		-1.953125
7921		3.906250
7922		-7.812500
7923		0.000000
7924		-13.671875
7925		-5.859375
7926		-17.578125
7927		-11.718750
7928		-21.484375
7929		-15.625000
7930		-29.296875
7931		-21.484375
7932		-33.203125
7933		-23.437500
7934		-37.109375
7935		-29.296875
7936		-41.015625
7937		-35.156250
7938		-46.875000
7939		-39.062500
7940		-52.734375
7941		-42.968750
7942		-56.640625
7943		-46.875000
7944		-58.593750
7945		-52.734375
7946		-62.500000
7947		-58.593750
7948		-70.312500
7949		-58.593750
7950		-72.265625
7951		-64.453125
7952		-74.218750
7953		-68.359375
7954		-76.171875
7955		-72.265625
7956		-82.031250
7957		-76.171875
7958		-85.937500
7959		-76.171875
7960		-85.937500
7961		-80.078125
7962		-87.890625
7963		-83.984375
7964		-93.750000
7965		-85.937500
7966		-95.703125
7967		-85.937500
7968		-95.703125
7969		-87.890625
7970		-95.703125
7971		-91.796875
7972		-97.656250
7973		-93.750000
7974		-99.609375
7975		-91.796875
7976		-99.609375
7977		-93.750000
7978		-97.656250
7979		-95.703125
7980		-99.609375
7981		-93.750000
7982		-101.562500
7983		-91.796875
7984		-99.609375
7985		-91.796875
7986		-97.656250
7987		-93.750000
7988		-95.703125
7989		-93.750000
7990		-95.703125
7991		-89.843750
7992		-95.703125
7993		-87.890625
7994		-93.750000
7995		-87.890625
7996		-89.843750
7997		-85.937500
7998		-89.843750
7999		-83.984375
8000		-85.937500
8001		-80.078125
8002		-85.937500
8003		-78.125000
8004		-80.078125
8005		-76.171875
8006		-76.171875
8007		-72.265625
8008		-74.218750
8009		-66.406250
8010		-70.312500
8011		-64.453125
8012		-66.406250
8013		-60.546875
8014		-62.500000
8015		-56.640625
8016		-58.593750
8017		-52.734375
8018		-52.734375
8019		-48.828125
8020		-48.828125
8021		-42.968750
8022		-44.921875
8023		-39.062500
8024		-41.015625
8025		-33.203125
8026		-35.156250
8027		-27.343750
8028		-31.250000
8029		-25.390625
8030		-25.390625
8031		-19.531250
8032		-21.484375
8033		-13.671875
8034		-15.625000
8035		-9.765625
8036		-9.765625
8037		-3.906250
8038		-5.859375
8039		0.000000
8040		0.000000
8041		5.859375
8042		3.906250
8043		9.765625
8044		9.765625
8045		15.625000
8046		13.671875
8047		21.484375
8048		19.531250
8049		25.390625
8050		23.437500
8051		31.250000
8052		29.296875
8053		35.156250
8054		33.203125
8055		39.062500
8056		39.062500
8057		44.921875
8058		42.968750
8059		48.828125
8060		46.875000
8061		52.734375
8062		50.781250
8063		56.640625
8064		54.687500
8065		60.546875
8066		60.546875
8067		64.453125
8068		64.453125
8069		68.359375
8070		66.406250
8071		72.265625
8072		70.312500
8073		76.171875
8074		72.265625
8075		80.078125
8076		76.171875
8077		82.031250
8078		80.078125
8079		85.937500
8080		82.031250
8081		87.890625
8082		83.984375
8083		89.843750
8084		87.890625
8085		93.750000
8086		89.843750
8087		93.750000
8088		93.750000
8089		95.703125
8090		93.750000
8091		99.609375
8092		95.703125
8093		99.609375
8094		97.656250
8095		101.562500
8096		97.656250
8097		103.515625
8098		99.609375
8099		103.515625
8100		99.609375
8101		105.468750
8102		101.562500
8103		105.468750
8104		101.562500
8105		103.515625
8106		103.515625
8107		103.515625
8108		101.562500
8109		107.421875
8110		101.562500
8111		105.468750
8112		99.609375
8113		105.468750
8114		99.609375
8115		105.468750
8116		99.609375
8117		103.515625
8118		97.656250
8119		103.515625
8120		97.656250
8121		99.609375
8122		95.703125
8123		99.609375
8124		93.750000
8125		97.656250
8126		91.796875
8127		97.656250
8128		87.890625
8129		93.750000
8130		85.937500
8131		91.796875
8132		83.984375
8133		89.843750
8134		82.031250
8135		87.890625
8136		80.078125
8137		83.984375
8138		76.171875
8139		80.078125
8140		72.265625
8141		78.125000
8142		68.359375
8143		74.218750
8144		66.406250
8145		70.312500
8146		60.546875
8147		68.359375
8148		56.640625
8149		62.500000
8150		52.734375
8151		60.546875
8152		48.828125
8153		54.687500
8154		44.921875
8155		50.781250
8156		41.015625
8157		46.875000
8158		35.156250
8159		41.015625
8160		31.250000
8161		37.109375
8162		25.390625
8163		33.203125
8164		21.484375
8165		29.296875
8166		15.625000
8167		23.437500
8168		9.765625
8169		17.578125
8170		5.859375
8171		13.671875
8172		1.953125
8173		7.812500
8174		-3.906250
8175		1.953125
8176		-9.765625
8177		-1.953125
8178		-13.671875
8179		-7.812500
8180		-19.531250
8181		-11.718750
8182		-23.437500
8183		-15.625000
8184		-29.296875
8185		-21.484375
8186		-33.203125
8187		-27.343750
8188		-39.062500
8189		-33.203125
8190		-42.968750
8191		-37.109375
8192		-46.875000
8193		-41.015625
8194		-52.734375
8195		-46.875000
8196		-58.593750
8197		-50.781250
8198		-60.546875
8199		-52.734375
8200		-64.453125
8201		-58.593750
8202		-68.359375
8203		-62.500000
8204		-72.265625
8205		-66.406250
8206		-76.171875
8207		-70.312500
8208		-78.125000
8209		-74.218750
8210		-82.031250
8211		-76.171875
8212		-83.984375
8213		-80.078125
8214		-87.890625
8215		-82.031250
8216		-89.843750
8217		-85.937500
8218		-91.796875
8219		-87.890625
8220		-93.750000
8221		-89.843750
8222		-93.750000
8223		-91.796875
8224		-97.656250
8225		-91.796875
8226		-97.656250
8227		-93.750000
8228		-97.656250
8229		-93.750000
8230		-99.609375
8231		-93.750000
8232		-97.656250
8233		-95.703125
8234		-97.656250
8235		-95.703125
8236		-99.609375
8237		-95.703125
8238		-97.656250
8239		-95.703125
8240		-95.703125
8241		-93.750000
8242		-95.703125
8243		-91.796875
8244		-93.750000
8245		-91.796875
8246		-93.750000
8247		-89.843750
8248		-93.750000
8249		-85.937500
8250		-89.843750
8251		-85.937500
8252		-87.890625
8253		-82.031250
8254		-85.937500
8255		-80.078125
8256		-82.031250
8257		-78.125000
8258		-78.125000
8259		-74.218750
8260		-76.171875
8261		-70.312500
8262		-72.265625
8263		-66.406250
8264		-68.359375
8265		-62.500000
8266		-64.453125
8267		-58.593750
8268		-60.546875
8269		-54.687500
8270		-58.593750
8271		-50.781250
8272		-52.734375
8273		-46.875000
8274		-46.875000
8275		-41.015625
8276		-44.921875
8277		-37.109375
8278		-39.062500
8279		-31.250000
8280		-33.203125
8281		-27.343750
8282		-31.250000
8283		-23.437500
8284		-23.437500
8285		-17.578125
8286		-19.531250
8287		-11.718750
8288		-15.625000
8289		-7.812500
8290		-9.765625
8291		-1.953125
8292		-3.906250
8293		1.953125
8294		0.000000
8295		7.812500
8296		5.859375
8297		11.718750
8298		11.718750
8299		17.578125
8300		15.625000
8301		21.484375
8302		21.484375
8303		27.343750
8304		25.390625
8305		31.250000
8306		31.250000
8307		37.109375
8308		35.156250
8309		42.968750
8310		39.062500
8311		46.875000
8312		44.921875
8313		50.781250
8314		48.828125
8315		56.640625
8316		52.734375
8317		58.593750
8318		56.640625
8319		62.500000
8320		60.546875
8321		66.406250
8322		64.453125
8323		70.312500
8324		68.359375
8325		74.218750
8326		72.265625
8327		78.125000
8328		76.171875
8329		80.078125
8330		78.125000
8331		83.984375
8332		82.031250
8333		85.937500
8334		83.984375
8335		89.843750
8336		85.937500
8337		91.796875
8338		89.843750
8339		93.750000
8340		91.796875
8341		95.703125
8342		93.750000
8343		97.656250
8344		95.703125
8345		99.609375
8346		95.703125
8347		99.609375
8348		97.656250
8349		101.562500
8350		99.609375
8351		103.515625
8352		99.609375
8353		103.515625
8354		99.609375
8355		103.515625
8356		101.562500
8357		105.468750
8358		101.562500
8359		103.515625
8360		101.562500
8361		105.468750
8362		101.562500
8363		105.468750
8364		101.562500
8365		105.468750
8366		101.562500
8367		103.515625
8368		99.609375
8369		103.515625
8370		99.609375
8371		101.562500
8372		97.656250
8373		101.562500
8374		97.656250
8375		101.562500
8376		95.703125
8377		99.609375
8378		93.750000
8379		97.656250
8380		91.796875
8381		95.703125
8382		87.890625
8383		93.750000
8384		85.937500
8385		91.796875
8386		83.984375
8387		89.843750
8388		82.031250
8389		85.937500
8390		78.125000
8391		82.031250
8392		74.218750
8393		80.078125
8394		70.312500
8395		76.171875
8396		68.359375
8397		72.265625
8398		64.453125
8399		70.312500
8400		60.546875
8401		66.406250
8402		56.640625
8403		62.500000
8404		50.781250
8405		58.593750
8406		46.875000
8407		52.734375
8408		42.968750
8409		48.828125
8410		39.062500
8411		44.921875
8412		35.156250
8413		41.015625
8414		29.296875
8415		35.156250
8416		25.390625
8417		31.250000
8418		19.531250
8419		27.343750
8420		15.625000
8421		21.484375
8422		9.765625
8423		15.625000
8424		3.906250
8425		11.718750
8426		-1.953125
8427		5.859375
8428		-5.859375
8429		1.953125
8430		-9.765625
8431		-3.906250
8432		-15.625000
8433		-9.765625
8434		-21.484375
8435		-13.671875
8436		-25.390625
8437		-19.531250
8438		-31.250000
8439		-23.437500
8440		-35.156250
8441		-29.296875
8442		-39.062500
8443		-33.203125
8444		-44.921875
8445		-39.062500
8446		-50.781250
8447		-42.968750
8448		-54.687500
8449		-48.828125
8450		-58.593750
8451		-52.734375
8452		-62.500000
8453		-56.640625
8454		-66.406250
8455		-60.546875
8456		-70.312500
8457		-62.500000
8458		-72.265625
8459		-68.359375
8460		-76.171875
8461		-72.265625
8462		-80.078125
8463		-74.218750
8464		-82.031250
8465		-78.125000
8466		-85.937500
8467		-80.078125
8468		-87.890625
8469		-83.984375
8470		-89.843750
8471		-85.937500
8472		-91.796875
8473		-87.890625
8474		-93.750000
8475		-89.843750
8476		-95.703125
8477		-91.796875
8478		-97.656250
8479		-91.796875
8480		-97.656250
8481		-93.750000
8482		-97.656250
8483		-93.750000
8484		-99.609375
8485		-95.703125
8486		-97.656250
8487		-95.703125
8488		-99.609375
8489		-95.703125
8490		-97.656250
8491		-95.703125
8492		-97.656250
8493		-93.750000
8494		-97.656250
8495		-91.796875
8496		-95.703125
8497		-91.796875
8498		-93.750000
8499		-89.843750
8500		-91.796875
8501		-87.890625
8502		-89.843750
8503		-85.937500
8504		-87.890625
8505		-83.984375
8506		-85.937500
8507		-82.031250
8508		-83.984375
8509		-78.125000
8510		-80.078125
8511		-76.171875
8512		-78.125000
8513		-72.265625
8514		-74.218750
8515		-68.359375
8516		-70.312500
8517		-66.406250
8518		-66.406250
8519		-60.546875
8520		-62.500000
8521		-56.640625
8522		-58.593750
8523		-52.734375
8524		-54.687500
8525		-48.828125
8526		-50.781250
8527		-44.921875
8528		-46.875000
8529		-39.062500
8530		-41.015625
8531		-35.156250
8532		-37.109375
8533		-31.250000
8534		-31.250000
8535		-25.390625
8536		-27.343750
8537		-21.484375
8538		-21.484375
8539		-15.625000
8540		-17.578125
8541		-11.718750
8542		-11.718750
8543		-5.859375
8544		-7.812500
8545		0.000000
8546		-1.953125
8547		3.906250
8548		1.953125
8549		9.765625
8550		7.812500
8551		15.625000
8552		13.671875
8553		19.531250
8554		17.578125
8555		25.390625
8556		23.437500
8557		29.296875
8558		27.343750
8559		33.203125
8560		33.203125
8561		41.015625
8562		37.109375
8563		42.968750
8564		41.015625
8565		46.875000
8566		46.875000
8567		52.734375
8568		50.781250
8569		56.640625
8570		54.687500
8571		60.546875
8572		58.593750
8573		64.453125
8574		62.500000
8575		68.359375
8576		66.406250
8577		70.312500
8578		70.312500
8579		74.218750
8580		72.265625
8581		78.125000
8582		76.171875
8583		82.031250
8584		80.078125
8585		83.984375
8586		82.031250
8587		87.890625
8588		85.937500
8589		89.843750
8590		87.890625
8591		91.796875
8592		89.843750
8593		93.750000
8594		91.796875
8595		95.703125
8596		93.750000
8597		97.656250
8598		95.703125
8599		99.609375
8600		97.656250
8601		101.562500
8602		97.656250
8603		101.562500
8604		99.609375
8605		103.515625
8606		101.562500
8607		105.468750
8608		101.562500
8609		103.515625
8610		103.515625
8611		103.515625
8612		101.562500
8613		105.468750
8614		101.562500
8615		105.468750
8616		101.562500
8617		105.468750
8618		101.562500
8619		105.468750
8620		101.562500
8621		103.515625
8622		99.609375
8623		103.515625
8624		99.609375
8625		103.515625
8626		97.656250
8627		101.562500
8628		95.703125
8629		99.609375
8630		93.750000
8631		97.656250
8632		93.750000
8633		97.656250
8634		89.843750
8635		95.703125
8636		87.890625
8637		91.796875
8638		85.937500
8639		89.843750
8640		83.984375
8641		87.890625
8642		80.078125
8643		83.984375
8644		78.125000
8645		82.031250
8646		74.218750
8647		80.078125
8648		70.312500
8649		76.171875
8650		66.406250
8651		72.265625
8652		62.500000
8653		68.359375
8654		58.593750
8655		64.453125
8656		54.687500
8657		60.546875
8658		50.781250
8659		56.640625
8660		46.875000
8661		52.734375
8662		42.968750
8663		46.875000
8664		37.109375
8665		42.968750
8666		33.203125
8667		39.062500
8668		27.343750
8669		35.156250
8670		23.437500
8671		29.296875
8672		17.578125
8673		23.437500
8674		13.671875
8675		19.531250
8676		7.812500
8677		13.671875
8678		1.953125
8679		9.765625
8680		-1.953125
8681		5.859375
8682		-5.859375
8683		0.000000
8684		-11.718750
8685		-5.859375
8686		-17.578125
8687		-9.765625
8688		-21.484375
8689		-15.625000
8690		-27.343750
8691		-19.531250
8692		-31.250000
8693		-25.390625
8694		-37.109375
8695		-31.250000
8696		-41.015625
8697		-35.156250
8698		-44.921875
8699		-41.015625
8700		-50.781250
8701		-42.968750
8702		-54.687500
8703		-48.828125
8704		-58.593750
8705		-52.734375
8706		-64.453125
8707		-58.593750
8708		-66.406250
8709		-60.546875
8710		-70.312500
8711		-66.406250
8712		-74.218750
8713		-68.359375
8714		-78.125000
8715		-72.265625
8716		-80.078125
8717		-76.171875
8718		-83.984375
8719		-78.125000
8720		-85.937500
8721		-82.031250
8722		-87.890625
8723		-83.984375
8724		-91.796875
8725		-85.937500
8726		-91.796875
8727		-89.843750
8728		-93.750000
8729		-91.796875
8730		-95.703125
8731		-91.796875
8732		-97.656250
8733		-93.750000
8734		-97.656250
8735		-93.750000
8736		-97.656250
8737		-95.703125
8738		-97.656250
8739		-95.703125
8740		-99.609375
8741		-95.703125
8742		-97.656250
8743		-95.703125
8744		-97.656250
8745		-95.703125
8746		-97.656250
8747		-93.750000
8748		-95.703125
8749		-91.796875
8750		-95.703125
8751		-91.796875
8752		-93.750000
8753		-89.843750
8754		-91.796875
8755		-87.890625
8756		-89.843750
8757		-85.937500
8758		-87.890625
8759		-83.984375
8760		-85.937500
8761		-82.031250
8762		-82.031250
8763		-76.171875
8764		-80.078125
8765		-74.218750
8766		-76.171875
8767		-72.265625
8768		-74.218750
8769		-68.359375
8770		-70.312500
8771		-62.500000
8772		-66.406250
8773		-60.546875
8774		-62.500000
8775		-56.640625
8776		-58.593750
8777		-52.734375
8778		-54.687500
8779		-48.828125
8780		-48.828125
8781		-42.968750
8782		-44.921875
8783		-39.062500
8784		-41.015625
8785		-33.203125
8786		-35.156250
8787		-29.296875
8788		-31.250000
8789		-23.437500
8790		-25.390625
8791		-17.578125
8792		-21.484375
8793		-13.671875
8794		-15.625000
8795		-9.765625
8796		-9.765625
8797		-3.906250
8798		-5.859375
8799		0.000000
8800		0.000000
8801		5.859375
8802		3.906250
8803		11.718750
8804		7.812500
8805		15.625000
8806		13.671875
8807		21.484375
8808		19.531250
8809		25.390625
8810		25.390625
8811		31.250000
8812		29.296875
8813		35.156250
8814		33.203125
8815		39.062500
8816		37.109375
8817		44.921875
8818		42.968750
8819		48.828125
8820		46.875000
8821		52.734375
8822		50.781250
8823		58.593750
8824		54.687500
8825		60.546875
8826		58.593750
8827		64.453125
8828		64.453125
8829		68.359375
8830		68.359375
8831		72.265625
8832		70.312500
8833		76.171875
8834		74.218750
8835		78.125000
8836		76.171875
8837		82.031250
8838		80.078125
8839		83.984375
8840		82.031250
8841		87.890625
8842		85.937500
8843		89.843750
8844		87.890625
8845		91.796875
8846		89.843750
8847		95.703125
8848		91.796875
8849		95.703125
8850		93.750000
8851		97.656250
8852		95.703125
8853		99.609375
8854		97.656250
8855		101.562500
8856		99.609375
8857		101.562500
8858		99.609375
8859		103.515625
8860		101.562500
8861		103.515625
8862		101.562500
8863		103.515625
8864		101.562500
8865		105.468750
8866		101.562500
8867		105.468750
8868		101.562500
8869		105.468750
8870		101.562500
8871		103.515625
8872		101.562500
8873		105.468750
8874		99.609375
8875		103.515625
8876		99.609375
8877		103.515625
8878		97.656250
8879		101.562500
8880		97.656250
8881		99.609375
8882		95.703125
8883		99.609375
8884		93.750000
8885		97.656250
8886		91.796875
8887		95.703125
8888		89.843750
8889		93.750000
8890		87.890625
8891		91.796875
8892		85.937500
8893		89.843750
8894		82.031250
8895		85.937500
8896		80.078125
8897		83.984375
8898		76.171875
8899		82.031250
8900		72.265625
8901		78.125000
8902		68.359375
8903		74.218750
8904		64.453125
8905		70.312500
8906		62.500000
8907		66.406250
8908		58.593750
8909		64.453125
8910		52.734375
8911		60.546875
8912		48.828125
8913		54.687500
8914		44.921875
8915		50.781250
8916		41.015625
8917		46.875000
8918		35.156250
8919		41.015625
8920		31.250000
8921		37.109375
8922		25.390625
8923		31.250000
8924		21.484375
8925		27.343750
8926		15.625000
8927		23.437500
8928		11.718750
8929		17.578125
8930		5.859375
8931		13.671875
8932		0.000000
8933		7.812500
8934		-3.906250
8935		1.953125
8936		-9.765625
8937		-1.953125
8938		-13.671875
8939		-7.812500
8940		-19.531250
8941		-13.671875
8942		-23.437500
8943		-17.578125
8944		-29.296875
8945		-23.437500
8946		-33.203125
8947		-27.343750
8948		-39.062500
8949		-33.203125
8950		-42.968750
8951		-37.109375
8952		-48.828125
8953		-42.968750
8954		-52.734375
8955		-46.875000
8956		-56.640625
8957		-50.781250
8958		-60.546875
8959		-54.687500
8960		-64.453125
8961		-58.593750
8962		-68.359375
8963		-62.500000
8964		-72.265625
8965		-66.406250
8966		-76.171875
8967		-70.312500
8968		-80.078125
8969		-74.218750
8970		-82.031250
8971		-78.125000
8972		-85.937500
8973		-80.078125
8974		-87.890625
8975		-82.031250
8976		-89.843750
8977		-83.984375
8978		-91.796875
8979		-87.890625
8980		-93.750000
8981		-89.843750
8982		-95.703125
8983		-89.843750
8984		-95.703125
8985		-91.796875
8986		-97.656250
8987		-93.750000
8988		-97.656250
8989		-95.703125
8990		-97.656250
8991		-95.703125
8992		-97.656250
8993		-95.703125
8994		-99.609375
8995		-95.703125
8996		-97.656250
8997		-95.703125
8998		-97.656250
8999		-93.750000
9000		-97.656250
9001		-93.750000
9002		-95.703125
9003		-93.750000
9004		-93.750000
9005		-91.796875
9006		-93.750000
9007		-89.843750
9008		-91.796875
9009		-87.890625
9010		-89.843750
9011		-85.937500
9012		-85.937500
9013		-83.984375
9014		-83.984375
9015		-80.078125
9016		-82.031250
9017		-76.171875
9018		-78.125000
9019		-74.218750
9020		-76.171875
9021		-70.312500
9022		-72.265625
9023		-66.406250
9024		-68.359375
9025		-62.500000
9026		-64.453125
9027		-58.593750
9028		-60.546875
9029		-54.687500
9030		-56.640625
9031		-50.781250
9032		-52.734375
9033		-46.875000
9034		-46.875000
9035		-41.015625
9036		-44.921875
9037		-37.109375
9038		-39.062500
9039		-33.203125
9040		-33.203125
9041		-27.343750
9042		-29.296875
9043		-23.437500
9044		-23.437500
9045		-17.578125
9046		-19.531250
9047		-13.671875
9048		-13.671875
9049		-5.859375
9050		-9.765625
9051		-1.953125
9052		-3.906250
9053		3.906250
9054		1.953125
9055		7.812500
9056		5.859375
9057		13.671875
9058		11.718750
9059		17.578125
9060		15.625000
9061		21.484375
9062		21.484375
9063		27.343750
9064		25.390625
9065		31.250000
9066		31.250000
9067		37.109375
9068		35.156250
9069		42.968750
9070		39.062500
9071		46.875000
9072		44.921875
9073		50.781250
9074		48.828125
9075		54.687500
9076		52.734375
9077		58.593750
9078		56.640625
9079		62.500000
9080		60.546875
9081		66.406250
9082		64.453125
9083		70.312500
9084		68.359375
9085		74.218750
9086		72.265625
9087		76.171875
9088		76.171875
9089		80.078125
9090		78.125000
9091		82.031250
9092		80.078125
9093		85.937500
9094		83.984375
9095		87.890625
9096		87.890625
9097		91.796875
9098		89.843750
9099		93.750000
9100		91.796875
9101		95.703125
9102		93.750000
9103		97.656250
9104		95.703125
9105		97.656250
9106		97.656250
9107		99.609375
9108		97.656250
9109		101.562500
9110		99.609375
9111		103.515625
9112		101.562500
9113		103.515625
9114		101.562500
9115		103.515625
9116		101.562500
9117		105.468750
9118		101.562500
9119		105.468750
9120		101.562500
9121		105.468750
9122		101.562500
9123		105.468750
9124		101.562500
9125		105.468750
9126		101.562500
9127		103.515625
9128		99.609375
9129		103.515625
9130		99.609375
9131		101.562500
9132		97.656250
9133		101.562500
9134		95.703125
9135		101.562500
9136		93.750000
9137		99.609375
9138		93.750000
9139		97.656250
9140		91.796875
9141		95.703125
9142		89.843750
9143		93.750000
9144		85.937500
9145		91.796875
9146		83.984375
9147		87.890625
9148		80.078125
9149		85.937500
9150		78.125000
9151		83.984375
9152		74.218750
9153		80.078125
9154		70.312500
9155		76.171875
9156		68.359375
9157		72.265625
9158		64.453125
9159		70.312500
9160		60.546875
9161		66.406250
9162		56.640625
9163		62.500000
9164		52.734375
9165		58.593750
9166		46.875000
9167		52.734375
9168		42.968750
9169		48.828125
9170		39.062500
9171		44.921875
9172		33.203125
9173		41.015625
9174		29.296875
9175		35.156250
9176		23.437500
9177		31.250000
9178		19.531250
9179		25.390625
9180		13.671875
9181		21.484375
9182		7.812500
9183		15.625000
9184		3.906250
9185		11.718750
9186		0.000000
9187		7.812500
9188		-5.859375
9189		0.000000
9190		-9.765625
9191		-3.906250
9192		-15.625000
9193		-9.765625
9194		-21.484375
9195		-13.671875
9196		-25.390625
9197		-19.531250
9198		-31.250000
9199		-23.437500
9200		-35.156250
9201		-29.296875
9202		-39.062500
9203		-33.203125
9204		-44.921875
9205		-39.062500
9206		-48.828125
9207		-42.968750
9208		-54.687500
9209		-48.828125
9210		-58.593750
9211		-52.734375
9212		-62.500000
9213		-56.640625
9214		-66.406250
9215		-60.546875
9216		-70.312500
9217		-64.453125
9218		-74.218750
9219		-68.359375
9220		-76.171875
9221		-72.265625
9222		-80.078125
9223		-74.218750
9224		-82.031250
9225		-78.125000
9226		-85.937500
9227		-82.031250
9228		-87.890625
9229		-83.984375
9230		-89.843750
9231		-85.937500
9232		-91.796875
9233		-87.890625
9234		-93.750000
9235		-89.843750
9236		-95.703125
9237		-91.796875
9238		-97.656250
9239		-93.750000
9240		-97.656250
9241		-93.750000
9242		-97.656250
9243		-93.750000
9244		-99.609375
9245		-95.703125
9246		-99.609375
9247		-95.703125
9248		-97.656250
9249		-95.703125
9250		-99.609375
9251		-93.750000
9252		-97.656250
9253		-95.703125
9254		-97.656250
9255		-93.750000
9256		-95.703125
9257		-91.796875
9258		-93.750000
9259		-91.796875
9260		-93.750000
9261		-89.843750
9262		-91.796875
9263		-87.890625
9264		-87.890625
9265		-83.984375
9266		-85.937500
9267		-82.031250
9268		-85.937500
9269		-80.078125
9270		-80.078125
9271		-76.171875
9272		-78.125000
9273		-72.265625
9274		-74.218750
9275		-70.312500
9276		-70.312500
9277		-64.453125
9278		-68.359375
9279		-60.546875
9280		-62.500000
9281		-58.593750
9282		-58.593750
9283		-54.687500
9284		-54.687500
9285		-48.828125
9286		-50.781250
9287		-44.921875
9288		-46.875000
9289		-41.015625
9290		-42.968750
9291		-35.156250
9292		-37.109375
9293		-31.250000
9294		-31.250000
9295		-25.390625
9296		-27.343750
9297		-21.484375
9298		-21.484375
9299		-15.625000
9300		-17.578125
9301		-11.718750
9302		-11.718750
9303		-5.859375
9304		-7.812500
9305		-1.953125
9306		-1.953125
9307		3.906250
9308		3.906250
9309		9.765625
9310		7.812500
9311		13.671875
9312		13.671875
9313		19.531250
9314		17.578125
9315		23.437500
9316		23.437500
9317		29.296875
9318		27.343750
9319		33.203125
9320		31.250000
9321		39.062500
9322		37.109375
9323		42.968750
9324		41.015625
9325		46.875000
9326		44.921875
9327		50.781250
9328		50.781250
9329		56.640625
9330		54.687500
9331		60.546875
9332		58.593750
9333		62.500000
9334		62.500000
9335		68.359375
9336		66.406250
9337		70.312500
9338		70.312500
9339		74.218750
9340		72.265625
9341		78.125000
9342		76.171875
9343		82.031250
9344		78.125000
9345		83.984375
9346		82.031250
9347		85.937500
9348		83.984375
9349		87.890625
9350		87.890625
9351		91.796875
9352		89.843750
9353		93.750000
9354		91.796875
9355		95.703125
9356		93.750000
9357		97.656250
9358		95.703125
9359		99.609375
9360		97.656250
9361		101.562500
9362		97.656250
9363		101.562500
9364		97.656250
9365		101.562500
9366		101.562500
9367		103.515625
9368		101.562500
9369		103.515625
9370		101.562500
9371		105.468750
9372		101.562500
9373		105.468750
9374		101.562500
9375		105.468750
9376		101.562500
9377		105.468750
9378		101.562500
9379		103.515625
9380		101.562500
9381		103.515625
9382		99.609375
9383		103.515625
9384		97.656250
9385		101.562500
9386		97.656250
9387		101.562500
9388		95.703125
9389		99.609375
9390		95.703125
9391		97.656250
9392		91.796875
9393		97.656250
9394		89.843750
9395		95.703125
9396		87.890625
9397		91.796875
9398		85.937500
9399		89.843750
9400		82.031250
9401		87.890625
9402		80.078125
9403		85.937500
9404		78.125000
9405		82.031250
9406		74.218750
9407		78.125000
9408		70.312500
9409		74.218750
9410		66.406250
9411		72.265625
9412		62.500000
9413		68.359375
9414		58.593750
9415		64.453125
9416		54.687500
9417		60.546875
9418		50.781250
9419		56.640625
9420		46.875000
9421		50.781250
9422		41.015625
9423		46.875000
9424		37.109375
9425		42.968750
9426		33.203125
9427		39.062500
9428		27.343750
9429		33.203125
9430		23.437500
9431		29.296875
9432		17.578125
9433		23.437500
9434		13.671875
9435		19.531250
9436		7.812500
9437		15.625000
9438		1.953125
9439		9.765625
9440		-1.953125
9441		3.906250
9442		-7.812500
9443		-1.953125
9444		-11.718750
9445		-5.859375
9446		-17.578125
9447		-9.765625
9448		-21.484375
9449		-15.625000
9450		-27.343750
9451		-21.484375
9452		-33.203125
9453		-25.390625
9454		-37.109375
9455		-31.250000
9456		-41.015625
9457		-35.156250
9458		-46.875000
9459		-39.062500
9460		-50.781250
9461		-44.921875
9462		-54.687500
9463		-48.828125
9464		-58.593750
9465		-54.687500
9466		-62.500000
9467		-58.593750
9468		-68.359375
9469		-62.500000
9470		-70.312500
9471		-66.406250
9472		-74.218750
9473		-70.312500
9474		-78.125000
9475		-72.265625
9476		-80.078125
9477		-76.171875
9478		-83.984375
9479		-78.125000
9480		-87.890625
9481		-82.031250
9482		-87.890625
9483		-83.984375
9484		-89.843750
9485		-87.890625
9486		-93.750000
9487		-87.890625
9488		-93.750000
9489		-89.843750
9490		-95.703125
9491		-91.796875
9492		-97.656250
9493		-93.750000
9494		-97.656250
9495		-93.750000
9496		-97.656250
9497		-95.703125
9498		-99.609375
9499		-95.703125
9500		-97.656250
9501		-95.703125
9502		-97.656250
9503		-95.703125
9504		-97.656250
9505		-95.703125
9506		-97.656250
9507		-93.750000
9508		-97.656250
9509		-93.750000
9510		-95.703125
9511		-91.796875
9512		-93.750000
9513		-89.843750
9514		-91.796875
9515		-87.890625
9516		-89.843750
9517		-85.937500
9518		-87.890625
9519		-83.984375
9520		-85.937500
9521		-80.078125
9522		-82.031250
9523		-78.125000
9524		-80.078125
9525		-76.171875
9526		-76.171875
9527		-70.312500
9528		-72.265625
9529		-68.359375
9530		-70.312500
9531		-64.453125
9532		-66.406250
9533		-60.546875
9534		-62.500000
9535		-56.640625
9536		-58.593750
9537		-52.734375
9538		-54.687500
9539		-46.875000
9540		-48.828125
9541		-42.968750
9542		-44.921875
9543		-39.062500
9544		-39.062500
9545		-33.203125
9546		-35.156250
9547		-29.296875
9548		-29.296875
9549		-23.437500
9550		-25.390625
9551		-19.531250
9552		-21.484375
9553		-13.671875
9554		-15.625000
9555		-7.812500
9556		-9.765625
9557		-3.906250
9558		-5.859375
9559		0.000000
9560		0.000000
9561		5.859375
9562		3.906250
9563		11.718750
9564		9.765625
9565		15.625000
9566		15.625000
9567		21.484375
9568		19.531250
9569		25.390625
9570		25.390625
9571		31.250000
9572		29.296875
9573		35.156250
9574		33.203125
9575		41.015625
9576		39.062500
9577		44.921875
9578		42.968750
9579		48.828125
9580		46.875000
9581		52.734375
9582		50.781250
9583		56.640625
9584		56.640625
9585		60.546875
9586		60.546875
9587		66.406250
9588		64.453125
9589		68.359375
9590		64.453125
9591		74.218750
9592		70.312500
9593		76.171875
9594		74.218750
9595		80.078125
9596		78.125000
9597		82.031250
9598		80.078125
9599		85.937500
9600		83.984375
9601		87.890625
9602		85.937500
9603		89.843750
9604		85.937500
9605		91.796875
9606		89.843750
9607		95.703125
9608		89.843750
9609		97.656250
9610		93.750000
9611		99.609375
9612		95.703125
9613		99.609375
9614		97.656250
9615		101.562500
9616		97.656250
9617		101.562500
9618		99.609375
9619		103.515625
9620		99.609375
9621		105.468750
9622		99.609375
9623		107.421875
9624		99.609375
9625		107.421875
9626		99.609375
9627		107.421875
9628		101.562500
9629		107.421875
9630		101.562500
9631		105.468750
9632		99.609375
9633		105.468750
9634		101.562500
9635		103.515625
9636		97.656250
9637		103.515625
9638		95.703125
9639		103.515625
9640		95.703125
9641		103.515625
9642		93.750000
9643		101.562500
9644		91.796875
9645		99.609375
9646		91.796875
9647		95.703125
9648		89.843750
9649		93.750000
9650		87.890625
9651		91.796875
9652		83.984375
9653		89.843750
9654		82.031250
9655		87.890625
9656		78.125000
9657		85.937500
9658		74.218750
9659		82.031250
9660		72.265625
9661		78.125000
9662		66.406250
9663		76.171875
9664		62.500000
9665		72.265625
9666		62.500000
9667		68.359375
9668		58.593750
9669		62.500000
9670		52.734375
9671		58.593750
9672		46.875000
9673		56.640625
9674		42.968750
9675		52.734375
9676		37.109375
9677		46.875000
9678		33.203125
9679		42.968750
9680		29.296875
9681		39.062500
9682		25.390625
9683		33.203125
9684		21.484375
9685		27.343750
9686		15.625000
9687		23.437500
9688		9.765625
9689		19.531250
9690		3.906250
9691		15.625000
9692		0.000000
9693		9.765625
9694		-5.859375
9695		3.906250
9696		-11.718750
9697		-1.953125
9698		-15.625000
9699		-5.859375
9700		-19.531250
9701		-11.718750
9702		-23.437500
9703		-17.578125
9704		-29.296875
9705		-23.437500
9706		-37.109375
9707		-25.390625
9708		-41.015625
9709		-29.296875
9710		-46.875000
9711		-35.156250
9712		-50.781250
9713		-41.015625
9714		-52.734375
9715		-44.921875
9716		-56.640625
9717		-48.828125
9718		-60.546875
9719		-54.687500
9720		-66.406250
9721		-60.546875
9722		-70.312500
9723		-60.546875
9724		-74.218750
9725		-64.453125
9726		-78.125000
9727		-68.359375
9728		-80.078125
9729		-72.265625
9730		-83.984375
9731		-76.171875
9732		-85.937500
9733		-78.125000
9734		-87.890625
9735		-83.984375
9736		-89.843750
9737		-85.937500
9738		-93.750000
9739		-85.937500
9740		-95.703125
9741		-87.890625
9742		-97.656250
9743		-89.843750
9744		-97.656250
9745		-89.843750
9746		-99.609375
9747		-91.796875
9748		-99.609375
9749		-93.750000
9750		-99.609375
9751		-93.750000
9752		-97.656250
9753		-95.703125
9754		-99.609375
9755		-93.750000
9756		-99.609375
9757		-93.750000
9758		-99.609375
9759		-93.750000
9760		-97.656250
9761		-93.750000
9762		-97.656250
9763		-91.796875
9764		-97.656250
9765		-89.843750
9766		-93.750000
9767		-89.843750
9768		-91.796875
9769		-87.890625
9770		-89.843750
9771		-85.937500
9772		-89.843750
9773		-82.031250
9774		-87.890625
9775		-78.125000
9776		-83.984375
9777		-74.218750
9778		-80.078125
9779		-72.265625
9780		-78.125000
9781		-68.359375
9782		-74.218750
9783		-64.453125
9784		-68.359375
9785		-62.500000
9786		-64.453125
9787		-58.593750
9788		-60.546875
9789		-52.734375
9790		-58.593750
9791		-48.828125
9792		-54.687500
9793		-44.921875
9794		-50.781250
9795		-39.062500
9796		-46.875000
9797		-35.156250
9798		-41.015625
9799		-29.296875
9800		-37.109375
9801		-27.343750
9802		-29.296875
9803		-23.437500
9804		-23.437500
9805		-15.625000
9806		-19.531250
9807		-11.718750
9808		-17.578125
9809		-5.859375
9810		-9.765625
9811		0.000000
9812		-5.859375
9813		3.906250
9814		-1.953125
9815		9.765625
9816		3.906250
9817		15.625000
9818		11.718750
9819		17.578125
9820		15.625000
9821		23.437500
9822		19.531250
9823		29.296875
9824		23.437500
9825		33.203125
9826		27.343750
9827		39.062500
9828		33.203125
9829		42.968750
9830		37.109375
9831		46.875000
9832		41.015625
9833		52.734375
9834		46.875000
9835		54.687500
9836		52.734375
9837		58.593750
9838		56.640625
9839		64.453125
9840		58.593750
9841		68.359375
9842		62.500000
9843		72.265625
9844		66.406250
9845		76.171875
9846		70.312500
9847		78.125000
9848		72.265625
9849		82.031250
9850		76.171875
9851		83.984375
9852		82.031250
9853		85.937500
9854		83.984375
9855		87.890625
9856		85.937500
9857		91.796875
9858		87.890625
9859		95.703125
9860		89.843750
9861		97.656250
9862		91.796875
9863		97.656250
9864		93.750000
9865		101.562500
9866		93.750000
9867		101.562500
9868		95.703125
9869		101.562500
9870		99.609375
9871		101.562500
9872		97.656250
9873		105.468750
9874		99.609375
9875		105.468750
9876		99.609375
9877		107.421875
9878		99.609375
9879		107.421875
9880		99.609375
9881		107.421875
9882		99.609375
9883		107.421875
9884		99.609375
9885		107.421875
9886		101.562500
9887		103.515625
9888		99.609375
9889		103.515625
9890		97.656250
9891		105.468750
9892		95.703125
9893		103.515625
9894		93.750000
9895		101.562500
9896		93.750000
9897		99.609375
9898		91.796875
9899		97.656250
9900		87.890625
9901		97.656250
9902		89.843750
9903		91.796875
9904		85.937500
9905		89.843750
9906		82.031250
9907		89.843750
9908		78.125000
9909		87.890625
9910		76.171875
9911		83.984375
9912		72.265625
9913		82.031250
9914		70.312500
9915		78.125000
9916		66.406250
9917		74.218750
9918		64.453125
9919		72.265625
9920		60.546875
9921		64.453125
9922		54.687500
9923		60.546875
9924		48.828125
9925		58.593750
9926		44.921875
9927		54.687500
9928		41.015625
9929		50.781250
9930		37.109375
9931		46.875000
9932		31.250000
9933		42.968750
9934		29.296875
9935		37.109375
9936		25.390625
9937		31.250000
9938		19.531250
9939		25.390625
9940		11.718750
9941		21.484375
9942		7.812500
9943		17.578125
9944		1.953125
9945		13.671875
9946		-1.953125
9947		7.812500
9948		-7.812500
9949		1.953125
9950		-13.671875
9951		-1.953125
9952		-15.625000
9953		-7.812500
9954		-21.484375
9955		-15.625000
9956		-27.343750
9957		-19.531250
9958		-33.203125
9959		-23.437500
9960		-37.109375
9961		-27.343750
9962		-42.968750
9963		-31.250000
9964		-46.875000
9965		-37.109375
9966		-52.734375
9967		-41.015625
9968		-54.687500
9969		-46.875000
9970		-58.593750
9971		-52.734375
9972		-62.500000
9973		-56.640625
9974		-68.359375
9975		-58.593750
9976		-72.265625
9977		-62.500000
9978		-76.171875
9979		-66.406250
9980		-78.125000
9981		-70.312500
9982		-82.031250
9983		-74.218750
9984		-83.984375
9985		-76.171875
9986		-85.937500
9987		-80.078125
9988		-87.890625
9989		-83.984375
9990		-91.796875
9991		-85.937500
9992		-93.750000
9993		-85.937500
9994		-95.703125
9995		-87.890625
9996		-97.656250
9997		-89.843750
9998		-97.656250
9999		-91.796875
10000		-99.609375
