Channel              :		CH1
Frequency            :		1.995kHz
Period               :		0.501ms
PK-PK                :		113.3mV
Probe attenuation    :		1X
Voltage per ADC value:		0.122070mV
Time interval        :		2.00000us

index		CH1_Voltage(mV)
1		25.390625
2		25.390625
3		33.203125
4		31.250000
5		33.203125
6		31.250000
7		39.062500
8		33.203125
9		41.015625
10		35.156250
11		42.968750
12		37.109375
13		44.921875
14		37.109375
15		46.875000
16		39.062500
17		48.828125
18		41.015625
19		48.828125
20		44.921875
21		48.828125
22		46.875000
23		50.781250
24		46.875000
25		54.687500
26		46.875000
27		54.687500
28		48.828125
29		56.640625
30		50.781250
31		56.640625
32		50.781250
33		58.593750
34		52.734375
35		58.593750
36		52.734375
37		58.593750
38		56.640625
39		58.593750
40		54.687500
41		60.546875
42		54.687500
43		60.546875
44		54.687500
45		62.500000
46		54.687500
47		62.500000
48		54.687500
49		62.500000
50		54.687500
51		62.500000
52		54.687500
53		62.500000
54		56.640625
55		58.593750
56		56.640625
57		58.593750
58		52.734375
59		60.546875
60		52.734375
61		60.546875
62		52.734375
63		58.593750
64		50.781250
65		58.593750
66		50.781250
67		56.640625
68		48.828125
69		56.640625
70		48.828125
71		56.640625
72		48.828125
73		52.734375
74		44.921875
75		52.734375
76		44.921875
77		52.734375
78		42.968750
79		50.781250
80		41.015625
81		48.828125
82		39.062500
83		46.875000
84		37.109375
85		44.921875
86		35.156250
87		42.968750
88		35.156250
89		39.062500
90		31.250000
91		37.109375
92		29.296875
93		37.109375
94		25.390625
95		35.156250
96		23.437500
97		33.203125
98		21.484375
99		29.296875
100		19.531250
101		27.343750
102		17.578125
103		25.390625
104		17.578125
105		21.484375
106		13.671875
107		17.578125
108		9.765625
109		17.578125
110		7.812500
111		15.625000
112		3.906250
113		11.718750
114		1.953125
115		9.765625
116		-1.953125
117		7.812500
118		-3.906250
119		5.859375
120		-3.906250
121		3.906250
122		-5.859375
123		-1.953125
124		-9.765625
125		-3.906250
126		-13.671875
127		-3.906250
128		-15.625000
129		-7.812500
130		-17.578125
131		-9.765625
132		-19.531250
133		-11.718750
134		-21.484375
135		-13.671875
136		-23.437500
137		-15.625000
138		-23.437500
139		-19.531250
140		-25.390625
141		-21.484375
142		-31.250000
143		-21.484375
144		-31.250000
145		-23.437500
146		-33.203125
147		-25.390625
148		-35.156250
149		-27.343750
150		-37.109375
151		-29.296875
152		-39.062500
153		-31.250000
154		-39.062500
155		-31.250000
156		-39.062500
157		-35.156250
158		-41.015625
159		-35.156250
160		-42.968750
161		-35.156250
162		-42.968750
163		-37.109375
164		-44.921875
165		-37.109375
166		-44.921875
167		-37.109375
168		-44.921875
169		-37.109375
170		-44.921875
171		-39.062500
172		-42.968750
173		-41.015625
174		-44.921875
175		-39.062500
176		-44.921875
177		-39.062500
178		-44.921875
179		-39.062500
180		-44.921875
181		-37.109375
182		-44.921875
183		-37.109375
184		-42.968750
185		-37.109375
186		-42.968750
187		-35.156250
188		-39.062500
189		-37.109375
190		-39.062500
191		-35.156250
192		-39.062500
193		-33.203125
194		-39.062500
195		-31.250000
196		-37.109375
197		-29.296875
198		-35.156250
199		-27.343750
200		-35.156250
201		-25.390625
202		-33.203125
203		-25.390625
204		-31.250000
205		-25.390625
206		-27.343750
207		-23.437500
208		-25.390625
209		-19.531250
210		-25.390625
211		-17.578125
212		-23.437500
213		-15.625000
214		-21.484375
215		-11.718750
216		-19.531250
217		-9.765625
218		-15.625000
219		-7.812500
220		-13.671875
221		-5.859375
222		-9.765625
223		-5.859375
224		-7.812500
225		-3.906250
226		-5.859375
227		1.953125
228		-3.906250
229		3.906250
230		-1.953125
231		5.859375
232		0.000000
233		9.765625
234		1.953125
235		11.718750
236		5.859375
237		13.671875
238		9.765625
239		13.671875
240		13.671875
241		17.578125
242		13.671875
243		21.484375
244		15.625000
245		23.437500
246		17.578125
247		25.390625
248		19.531250
249		29.296875
250		23.437500
251		31.250000
252		25.390625
253		33.203125
254		27.343750
255		35.156250
256		31.250000
257		35.156250
258		33.203125
259		39.062500
260		33.203125
261		41.015625
262		35.156250
263		42.968750
264		37.109375
265		44.921875
266		39.062500
267		46.875000
268		41.015625
269		48.828125
270		42.968750
271		50.781250
272		44.921875
273		50.781250
274		48.828125
275		50.781250
276		46.875000
277		54.687500
278		48.828125
279		56.640625
280		48.828125
281		56.640625
282		50.781250
283		58.593750
284		52.734375
285		58.593750
286		52.734375
287		60.546875
288		52.734375
289		60.546875
290		56.640625
291		58.593750
292		54.687500
293		60.546875
294		54.687500
295		62.500000
296		54.687500
297		62.500000
298		54.687500
299		62.500000
300		54.687500
301		62.500000
302		54.687500
303		62.500000
304		54.687500
305		60.546875
306		56.640625
307		58.593750
308		56.640625
309		58.593750
310		52.734375
311		60.546875
312		52.734375
313		58.593750
314		50.781250
315		58.593750
316		50.781250
317		58.593750
318		50.781250
319		56.640625
320		48.828125
321		54.687500
322		48.828125
323		54.687500
324		48.828125
325		50.781250
326		44.921875
327		52.734375
328		42.968750
329		50.781250
330		41.015625
331		48.828125
332		39.062500
333		46.875000
334		37.109375
335		44.921875
336		35.156250
337		42.968750
338		35.156250
339		41.015625
340		33.203125
341		37.109375
342		29.296875
343		35.156250
344		27.343750
345		35.156250
346		25.390625
347		33.203125
348		23.437500
349		31.250000
350		19.531250
351		29.296875
352		17.578125
353		27.343750
354		15.625000
355		23.437500
356		15.625000
357		19.531250
358		13.671875
359		17.578125
360		7.812500
361		15.625000
362		5.859375
363		13.671875
364		1.953125
365		11.718750
366		0.000000
367		9.765625
368		-1.953125
369		5.859375
370		-3.906250
371		3.906250
372		-5.859375
373		1.953125
374		-7.812500
375		-3.906250
376		-11.718750
377		-5.859375
378		-13.671875
379		-5.859375
380		-15.625000
381		-7.812500
382		-19.531250
383		-9.765625
384		-21.484375
385		-13.671875
386		-23.437500
387		-15.625000
388		-25.390625
389		-17.578125
390		-25.390625
391		-21.484375
392		-27.343750
393		-23.437500
394		-31.250000
395		-23.437500
396		-33.203125
397		-25.390625
398		-35.156250
399		-27.343750
400		-35.156250
401		-27.343750
402		-37.109375
403		-29.296875
404		-39.062500
405		-31.250000
406		-39.062500
407		-33.203125
408		-39.062500
409		-35.156250
410		-42.968750
411		-35.156250
412		-42.968750
413		-35.156250
414		-42.968750
415		-37.109375
416		-44.921875
417		-37.109375
418		-44.921875
419		-37.109375
420		-44.921875
421		-37.109375
422		-44.921875
423		-37.109375
424		-42.968750
425		-41.015625
426		-42.968750
427		-41.015625
428		-44.921875
429		-39.062500
430		-44.921875
431		-37.109375
432		-44.921875
433		-37.109375
434		-44.921875
435		-37.109375
436		-42.968750
437		-35.156250
438		-42.968750
439		-35.156250
440		-41.015625
441		-37.109375
442		-37.109375
443		-35.156250
444		-39.062500
445		-31.250000
446		-37.109375
447		-31.250000
448		-37.109375
449		-29.296875
450		-35.156250
451		-27.343750
452		-33.203125
453		-25.390625
454		-31.250000
455		-23.437500
456		-29.296875
457		-23.437500
458		-27.343750
459		-21.484375
460		-25.390625
461		-17.578125
462		-23.437500
463		-15.625000
464		-21.484375
465		-13.671875
466		-19.531250
467		-11.718750
468		-17.578125
469		-9.765625
470		-15.625000
471		-5.859375
472		-11.718750
473		-3.906250
474		-7.812500
475		-3.906250
476		-5.859375
477		-1.953125
478		-5.859375
479		3.906250
480		-1.953125
481		5.859375
482		0.000000
483		7.812500
484		1.953125
485		9.765625
486		3.906250
487		13.671875
488		7.812500
489		15.625000
490		9.765625
491		15.625000
492		13.671875
493		17.578125
494		15.625000
495		23.437500
496		17.578125
497		25.390625
498		19.531250
499		27.343750
500		21.484375
501		29.296875
502		23.437500
503		33.203125
504		27.343750
505		35.156250
506		29.296875
507		37.109375
508		33.203125
509		37.109375
510		35.156250
511		39.062500
512		35.156250
513		42.968750
514		37.109375
515		44.921875
516		39.062500
517		46.875000
518		41.015625
519		48.828125
520		42.968750
521		48.828125
522		42.968750
523		50.781250
524		46.875000
525		50.781250
526		48.828125
527		52.734375
528		48.828125
529		54.687500
530		48.828125
531		56.640625
532		50.781250
533		56.640625
534		50.781250
535		58.593750
536		52.734375
537		58.593750
538		52.734375
539		60.546875
540		54.687500
541		60.546875
542		56.640625
543		58.593750
544		54.687500
545		60.546875
546		54.687500
547		62.500000
548		54.687500
549		62.500000
550		54.687500
551		62.500000
552		54.687500
553		62.500000
554		54.687500
555		62.500000
556		54.687500
557		62.500000
558		56.640625
559		58.593750
560		56.640625
561		58.593750
562		52.734375
563		60.546875
564		52.734375
565		58.593750
566		50.781250
567		58.593750
568		50.781250
569		56.640625
570		48.828125
571		56.640625
572		46.875000
573		56.640625
574		46.875000
575		54.687500
576		46.875000
577		50.781250
578		42.968750
579		50.781250
580		42.968750
581		48.828125
582		41.015625
583		46.875000
584		39.062500
585		46.875000
586		37.109375
587		44.921875
588		33.203125
589		42.968750
590		33.203125
591		41.015625
592		33.203125
593		37.109375
594		31.250000
595		35.156250
596		25.390625
597		35.156250
598		23.437500
599		31.250000
600		21.484375
601		29.296875
602		19.531250
603		27.343750
604		17.578125
605		25.390625
606		13.671875
607		21.484375
608		13.671875
609		17.578125
610		11.718750
611		15.625000
612		5.859375
613		13.671875
614		3.906250
615		13.671875
616		1.953125
617		9.765625
618		-1.953125
619		7.812500
620		-3.906250
621		3.906250
622		-5.859375
623		3.906250
624		-7.812500
625		0.000000
626		-9.765625
627		-3.906250
628		-13.671875
629		-7.812500
630		-15.625000
631		-7.812500
632		-17.578125
633		-9.765625
634		-19.531250
635		-11.718750
636		-21.484375
637		-13.671875
638		-23.437500
639		-15.625000
640		-25.390625
641		-19.531250
642		-25.390625
643		-23.437500
644		-27.343750
645		-25.390625
646		-31.250000
647		-25.390625
648		-33.203125
649		-25.390625
650		-35.156250
651		-27.343750
652		-37.109375
653		-29.296875
654		-39.062500
655		-31.250000
656		-39.062500
657		-31.250000
658		-39.062500
659		-33.203125
660		-39.062500
661		-37.109375
662		-42.968750
663		-37.109375
664		-42.968750
665		-35.156250
666		-42.968750
667		-37.109375
668		-44.921875
669		-37.109375
670		-44.921875
671		-39.062500
672		-44.921875
673		-37.109375
674		-44.921875
675		-39.062500
676		-42.968750
677		-41.015625
678		-42.968750
679		-39.062500
680		-44.921875
681		-37.109375
682		-44.921875
683		-37.109375
684		-44.921875
685		-37.109375
686		-42.968750
687		-35.156250
688		-42.968750
689		-35.156250
690		-42.968750
691		-35.156250
692		-41.015625
693		-35.156250
694		-37.109375
695		-35.156250
696		-37.109375
697		-31.250000
698		-37.109375
699		-29.296875
700		-35.156250
701		-27.343750
702		-33.203125
703		-27.343750
704		-31.250000
705		-23.437500
706		-29.296875
707		-23.437500
708		-29.296875
709		-21.484375
710		-25.390625
711		-21.484375
712		-21.484375
713		-15.625000
714		-21.484375
715		-13.671875
716		-19.531250
717		-11.718750
718		-17.578125
719		-9.765625
720		-15.625000
721		-7.812500
722		-13.671875
723		-5.859375
724		-9.765625
725		-3.906250
726		-5.859375
727		-1.953125
728		-3.906250
729		0.000000
730		-1.953125
731		5.859375
732		-1.953125
733		7.812500
734		1.953125
735		9.765625
736		3.906250
737		11.718750
738		5.859375
739		15.625000
740		9.765625
741		17.578125
742		11.718750
743		19.531250
744		15.625000
745		19.531250
746		17.578125
747		25.390625
748		19.531250
749		27.343750
750		21.484375
751		29.296875
752		23.437500
753		31.250000
754		25.390625
755		33.203125
756		27.343750
757		35.156250
758		31.250000
759		37.109375
760		35.156250
761		37.109375
762		37.109375
763		41.015625
764		37.109375
765		44.921875
766		37.109375
767		46.875000
768		41.015625
769		46.875000
770		41.015625
771		48.828125
772		42.968750
773		50.781250
774		44.921875
775		52.734375
776		46.875000
777		52.734375
778		50.781250
779		52.734375
780		48.828125
781		56.640625
782		50.781250
783		56.640625
784		50.781250
785		58.593750
786		52.734375
787		58.593750
788		52.734375
789		58.593750
790		54.687500
791		60.546875
792		54.687500
793		60.546875
794		56.640625
795		58.593750
796		56.640625
797		60.546875
798		54.687500
799		62.500000
800		54.687500
801		62.500000
802		54.687500
803		62.500000
804		54.687500
805		62.500000
806		54.687500
807		62.500000
808		54.687500
809		60.546875
810		56.640625
811		58.593750
812		54.687500
813		58.593750
814		52.734375
815		58.593750
816		50.781250
817		58.593750
818		50.781250
819		58.593750
820		50.781250
821		56.640625
822		48.828125
823		56.640625
824		46.875000
825		54.687500
826		46.875000
827		52.734375
828		46.875000
829		48.828125
830		42.968750
831		48.828125
832		41.015625
833		48.828125
834		39.062500
835		46.875000
836		37.109375
837		44.921875
838		35.156250
839		42.968750
840		33.203125
841		41.015625
842		31.250000
843		39.062500
844		31.250000
845		35.156250
846		29.296875
847		33.203125
848		25.390625
849		31.250000
850		21.484375
851		31.250000
852		19.531250
853		27.343750
854		17.578125
855		25.390625
856		15.625000
857		23.437500
858		11.718750
859		21.484375
860		11.718750
861		19.531250
862		9.765625
863		13.671875
864		3.906250
865		11.718750
866		1.953125
867		9.765625
868		-1.953125
869		7.812500
870		-3.906250
871		5.859375
872		-3.906250
873		3.906250
874		-7.812500
875		0.000000
876		-7.812500
877		-1.953125
878		-9.765625
879		-5.859375
880		-15.625000
881		-7.812500
882		-15.625000
883		-9.765625
884		-19.531250
885		-11.718750
886		-21.484375
887		-13.671875
888		-23.437500
889		-15.625000
890		-25.390625
891		-17.578125
892		-27.343750
893		-19.531250
894		-27.343750
895		-23.437500
896		-29.296875
897		-25.390625
898		-33.203125
899		-25.390625
900		-35.156250
901		-27.343750
902		-35.156250
903		-29.296875
904		-37.109375
905		-29.296875
906		-39.062500
907		-31.250000
908		-39.062500
909		-33.203125
910		-41.015625
911		-33.203125
912		-39.062500
913		-37.109375
914		-42.968750
915		-37.109375
916		-44.921875
917		-37.109375
918		-44.921875
919		-37.109375
920		-44.921875
921		-37.109375
922		-44.921875
923		-39.062500
924		-44.921875
925		-37.109375
926		-44.921875
927		-39.062500
928		-42.968750
929		-41.015625
930		-42.968750
931		-41.015625
932		-44.921875
933		-37.109375
934		-44.921875
935		-37.109375
936		-42.968750
937		-37.109375
938		-42.968750
939		-35.156250
940		-42.968750
941		-35.156250
942		-41.015625
943		-33.203125
944		-39.062500
945		-33.203125
946		-37.109375
947		-33.203125
948		-37.109375
949		-29.296875
950		-37.109375
951		-27.343750
952		-35.156250
953		-25.390625
954		-31.250000
955		-25.390625
956		-31.250000
957		-23.437500
958		-29.296875
959		-21.484375
960		-27.343750
961		-19.531250
962		-23.437500
963		-17.578125
964		-21.484375
965		-15.625000
966		-21.484375
967		-13.671875
968		-19.531250
969		-11.718750
970		-15.625000
971		-7.812500
972		-13.671875
973		-5.859375
974		-11.718750
975		-3.906250
976		-9.765625
977		0.000000
978		-3.906250
979		0.000000
980		-1.953125
981		1.953125
982		-1.953125
983		5.859375
984		0.000000
985		7.812500
986		3.906250
987		11.718750
988		5.859375
989		13.671875
990		7.812500
991		15.625000
992		11.718750
993		19.531250
994		13.671875
995		19.531250
996		17.578125
997		21.484375
998		19.531250
999		25.390625
1000		19.531250
1001		29.296875
1002		23.437500
1003		31.250000
1004		25.390625
1005		33.203125
1006		27.343750
1007		35.156250
1008		29.296875
1009		37.109375
1010		31.250000
1011		39.062500
1012		35.156250
1013		39.062500
1014		37.109375
1015		41.015625
1016		39.062500
1017		44.921875
1018		39.062500
1019		46.875000
1020		41.015625
1021		48.828125
1022		42.968750
1023		50.781250
1024		44.921875
1025		50.781250
1026		46.875000
1027		54.687500
1028		46.875000
1029		54.687500
1030		50.781250
1031		54.687500
1032		50.781250
1033		56.640625
1034		50.781250
1035		58.593750
1036		52.734375
1037		58.593750
1038		52.734375
1039		60.546875
1040		52.734375
1041		60.546875
1042		54.687500
1043		60.546875
1044		54.687500
1045		60.546875
1046		56.640625
1047		60.546875
1048		56.640625
1049		60.546875
1050		54.687500
1051		62.500000
1052		54.687500
1053		62.500000
1054		54.687500
1055		62.500000
1056		54.687500
1057		62.500000
1058		54.687500
1059		62.500000
1060		54.687500
1061		60.546875
1062		56.640625
1063		58.593750
1064		54.687500
1065		58.593750
1066		52.734375
1067		58.593750
1068		50.781250
1069		58.593750
1070		50.781250
1071		58.593750
1072		48.828125
1073		56.640625
1074		46.875000
1075		54.687500
1076		46.875000
1077		54.687500
1078		44.921875
1079		52.734375
1080		44.921875
1081		48.828125
1082		41.015625
1083		48.828125
1084		39.062500
1085		46.875000
1086		37.109375
1087		44.921875
1088		37.109375
1089		44.921875
1090		33.203125
1091		42.968750
1092		31.250000
1093		41.015625
1094		31.250000
1095		39.062500
1096		29.296875
1097		33.203125
1098		27.343750
1099		31.250000
1100		23.437500
1101		31.250000
1102		21.484375
1103		29.296875
1104		19.531250
1105		27.343750
1106		15.625000
1107		25.390625
1108		13.671875
1109		21.484375
1110		11.718750
1111		19.531250
1112		9.765625
1113		17.578125
1114		7.812500
1115		11.718750
1116		3.906250
1117		9.765625
1118		0.000000
1119		9.765625
1120		-1.953125
1121		7.812500
1122		-3.906250
1123		3.906250
1124		-7.812500
1125		1.953125
1126		-7.812500
1127		0.000000
1128		-11.718750
1129		-1.953125
1130		-11.718750
1131		-7.812500
1132		-13.671875
1133		-9.765625
1134		-17.578125
1135		-9.765625
1136		-19.531250
1137		-11.718750
1138		-23.437500
1139		-15.625000
1140		-25.390625
1141		-15.625000
1142		-27.343750
1143		-19.531250
1144		-29.296875
1145		-21.484375
1146		-29.296875
1147		-23.437500
1148		-29.296875
1149		-27.343750
1150		-33.203125
1151		-27.343750
1152		-35.156250
1153		-27.343750
1154		-37.109375
1155		-29.296875
1156		-39.062500
1157		-31.250000
1158		-39.062500
1159		-31.250000
1160		-41.015625
1161		-33.203125
1162		-41.015625
1163		-35.156250
1164		-41.015625
1165		-37.109375
1166		-42.968750
1167		-37.109375
1168		-44.921875
1169		-37.109375
1170		-42.968750
1171		-37.109375
1172		-44.921875
1173		-37.109375
1174		-44.921875
1175		-37.109375
1176		-44.921875
1177		-37.109375
1178		-44.921875
1179		-37.109375
1180		-42.968750
1181		-39.062500
1182		-42.968750
1183		-39.062500
1184		-42.968750
1185		-37.109375
1186		-42.968750
1187		-37.109375
1188		-42.968750
1189		-35.156250
1190		-41.015625
1191		-35.156250
1192		-41.015625
1193		-33.203125
1194		-39.062500
1195		-33.203125
1196		-39.062500
1197		-33.203125
1198		-35.156250
1199		-31.250000
1200		-35.156250
1201		-29.296875
1202		-35.156250
1203		-27.343750
1204		-33.203125
1205		-25.390625
1206		-31.250000
1207		-23.437500
1208		-29.296875
1209		-21.484375
1210		-27.343750
1211		-19.531250
1212		-25.390625
1213		-17.578125
1214		-21.484375
1215		-17.578125
1216		-19.531250
1217		-15.625000
1218		-19.531250
1219		-11.718750
1220		-17.578125
1221		-7.812500
1222		-15.625000
1223		-5.859375
1224		-11.718750
1225		-3.906250
1226		-9.765625
1227		-1.953125
1228		-7.812500
1229		1.953125
1230		-3.906250
1231		1.953125
1232		0.000000
1233		3.906250
1234		1.953125
1235		7.812500
1236		1.953125
1237		11.718750
1238		3.906250
1239		13.671875
1240		7.812500
1241		15.625000
1242		9.765625
1243		17.578125
1244		11.718750
1245		21.484375
1246		15.625000
1247		21.484375
1248		19.531250
1249		23.437500
1250		21.484375
1251		27.343750
1252		21.484375
1253		31.250000
1254		23.437500
1255		33.203125
1256		27.343750
1257		35.156250
1258		29.296875
1259		37.109375
1260		31.250000
1261		39.062500
1262		33.203125
1263		41.015625
1264		37.109375
1265		41.015625
1266		39.062500
1267		42.968750
1268		39.062500
1269		46.875000
1270		41.015625
1271		48.828125
1272		41.015625
1273		50.781250
1274		42.968750
1275		50.781250
1276		44.921875
1277		52.734375
1278		46.875000
1279		54.687500
1280		48.828125
1281		54.687500
1282		52.734375
1283		54.687500
1284		52.734375
1285		58.593750
1286		50.781250
1287		58.593750
1288		52.734375
1289		60.546875
1290		52.734375
1291		60.546875
1292		54.687500
1293		60.546875
1294		54.687500
1295		62.500000
1296		54.687500
1297		62.500000
1298		58.593750
1299		60.546875
1300		58.593750
1301		60.546875
1302		54.687500
1303		62.500000
1304		54.687500
1305		62.500000
1306		54.687500
1307		62.500000
1308		54.687500
1309		62.500000
1310		54.687500
1311		62.500000
1312		54.687500
1313		60.546875
1314		54.687500
1315		58.593750
1316		54.687500
1317		56.640625
1318		50.781250
1319		58.593750
1320		50.781250
1321		58.593750
1322		50.781250
1323		56.640625
1324		48.828125
1325		56.640625
1326		46.875000
1327		54.687500
1328		44.921875
1329		54.687500
1330		44.921875
1331		52.734375
1332		44.921875
1333		48.828125
1334		41.015625
1335		46.875000
1336		39.062500
1337		46.875000
1338		37.109375
1339		44.921875
1340		35.156250
1341		42.968750
1342		33.203125
1343		41.015625
1344		31.250000
1345		39.062500
1346		29.296875
1347		37.109375
1348		29.296875
1349		33.203125
1350		25.390625
1351		31.250000
1352		21.484375
1353		29.296875
1354		19.531250
1355		27.343750
1356		17.578125
1357		25.390625
1358		15.625000
1359		23.437500
1360		11.718750
1361		21.484375
1362		9.765625
1363		17.578125
1364		9.765625
1365		15.625000
1366		7.812500
1367		11.718750
1368		0.000000
1369		7.812500
1370		0.000000
1371		7.812500
1372		-1.953125
1373		5.859375
1374		-5.859375
1375		3.906250
1376		-7.812500
1377		0.000000
1378		-9.765625
1379		-1.953125
1380		-11.718750
1381		-3.906250
1382		-11.718750
1383		-9.765625
1384		-15.625000
1385		-11.718750
1386		-19.531250
1387		-11.718750
1388		-21.484375
1389		-13.671875
1390		-23.437500
1391		-15.625000
1392		-25.390625
1393		-15.625000
1394		-27.343750
1395		-19.531250
1396		-29.296875
1397		-21.484375
1398		-29.296875
1399		-23.437500
1400		-31.250000
1401		-27.343750
1402		-35.156250
1403		-27.343750
1404		-37.109375
1405		-29.296875
1406		-37.109375
1407		-31.250000
1408		-39.062500
1409		-31.250000
1410		-39.062500
1411		-33.203125
1412		-41.015625
1413		-33.203125
1414		-41.015625
1415		-35.156250
1416		-41.015625
1417		-37.109375
1418		-42.968750
1419		-37.109375
1420		-42.968750
1421		-37.109375
1422		-42.968750
1423		-37.109375
1424		-44.921875
1425		-37.109375
1426		-44.921875
1427		-37.109375
1428		-44.921875
1429		-37.109375
1430		-44.921875
1431		-37.109375
1432		-41.015625
1433		-39.062500
1434		-41.015625
1435		-39.062500
1436		-42.968750
1437		-37.109375
1438		-42.968750
1439		-35.156250
1440		-41.015625
1441		-35.156250
1442		-41.015625
1443		-33.203125
1444		-39.062500
1445		-33.203125
1446		-39.062500
1447		-31.250000
1448		-37.109375
1449		-31.250000
1450		-35.156250
1451		-31.250000
1452		-33.203125
1453		-27.343750
1454		-33.203125
1455		-25.390625
1456		-33.203125
1457		-23.437500
1458		-29.296875
1459		-23.437500
1460		-27.343750
1461		-21.484375
1462		-25.390625
1463		-17.578125
1464		-23.437500
1465		-15.625000
1466		-19.531250
1467		-15.625000
1468		-17.578125
1469		-13.671875
1470		-17.578125
1471		-9.765625
1472		-15.625000
1473		-7.812500
1474		-11.718750
1475		-3.906250
1476		-9.765625
1477		-1.953125
1478		-7.812500
1479		0.000000
1480		-5.859375
1481		1.953125
1482		-1.953125
1483		3.906250
1484		1.953125
1485		5.859375
1486		3.906250
1487		9.765625
1488		3.906250
1489		13.671875
1490		7.812500
1491		15.625000
1492		9.765625
1493		17.578125
1494		11.718750
1495		19.531250
1496		13.671875
1497		23.437500
1498		17.578125
1499		23.437500
1500		21.484375
1501		25.390625
1502		23.437500
1503		29.296875
1504		25.390625
1505		31.250000
1506		27.343750
1507		33.203125
1508		31.250000
1509		37.109375
1510		31.250000
1511		39.062500
1512		33.203125
1513		39.062500
1514		35.156250
1515		41.015625
1516		39.062500
1517		42.968750
1518		41.015625
1519		44.921875
1520		41.015625
1521		46.875000
1522		44.921875
1523		48.828125
1524		44.921875
1525		50.781250
1526		46.875000
1527		52.734375
1528		46.875000
1529		54.687500
1530		48.828125
1531		54.687500
1532		50.781250
1533		54.687500
1534		52.734375
1535		54.687500
1536		52.734375
1537		56.640625
1538		54.687500
1539		56.640625
1540		54.687500
1541		58.593750
1542		56.640625
1543		58.593750
1544		54.687500
1545		60.546875
1546		56.640625
1547		60.546875
1548		56.640625
1549		60.546875
1550		58.593750
1551		60.546875
1552		58.593750
1553		60.546875
1554		56.640625
1555		60.546875
1556		56.640625
1557		60.546875
1558		56.640625
1559		60.546875
1560		56.640625
1561		60.546875
1562		54.687500
1563		60.546875
1564		56.640625
1565		58.593750
1566		54.687500
1567		58.593750
1568		54.687500
1569		56.640625
1570		52.734375
1571		56.640625
1572		52.734375
1573		56.640625
1574		50.781250
1575		54.687500
1576		48.828125
1577		52.734375
1578		48.828125
1579		52.734375
1580		46.875000
1581		50.781250
1582		44.921875
1583		48.828125
1584		44.921875
1585		46.875000
1586		41.015625
1587		44.921875
1588		41.015625
1589		44.921875
1590		39.062500
1591		42.968750
1592		37.109375
1593		41.015625
1594		35.156250
1595		39.062500
1596		31.250000
1597		35.156250
1598		29.296875
1599		35.156250
1600		27.343750
1601		31.250000
1602		25.390625
1603		29.296875
1604		23.437500
1605		27.343750
1606		21.484375
1607		25.390625
1608		17.578125
1609		23.437500
1610		15.625000
1611		19.531250
1612		11.718750
1613		17.578125
1614		9.765625
1615		15.625000
1616		7.812500
1617		13.671875
1618		5.859375
1619		9.765625
1620		1.953125
1621		7.812500
1622		0.000000
1623		3.906250
1624		-1.953125
1625		1.953125
1626		-3.906250
1627		0.000000
1628		-5.859375
1629		-3.906250
1630		-9.765625
1631		-5.859375
1632		-11.718750
1633		-7.812500
1634		-13.671875
1635		-9.765625
1636		-15.625000
1637		-11.718750
1638		-19.531250
1639		-13.671875
1640		-21.484375
1641		-17.578125
1642		-21.484375
1643		-17.578125
1644		-25.390625
1645		-21.484375
1646		-27.343750
1647		-23.437500
1648		-29.296875
1649		-25.390625
1650		-29.296875
1651		-25.390625
1652		-31.250000
1653		-27.343750
1654		-33.203125
1655		-29.296875
1656		-35.156250
1657		-31.250000
1658		-35.156250
1659		-33.203125
1660		-37.109375
1661		-33.203125
1662		-37.109375
1663		-35.156250
1664		-39.062500
1665		-35.156250
1666		-39.062500
1667		-37.109375
1668		-41.015625
1669		-37.109375
1670		-41.015625
1671		-39.062500
1672		-42.968750
1673		-39.062500
1674		-42.968750
1675		-39.062500
1676		-42.968750
1677		-39.062500
1678		-42.968750
1679		-39.062500
1680		-42.968750
1681		-39.062500
1682		-42.968750
1683		-39.062500
1684		-41.015625
1685		-39.062500
1686		-41.015625
1687		-39.062500
1688		-41.015625
1689		-37.109375
1690		-39.062500
1691		-37.109375
1692		-39.062500
1693		-35.156250
1694		-39.062500
1695		-35.156250
1696		-37.109375
1697		-33.203125
1698		-35.156250
1699		-31.250000
1700		-35.156250
1701		-31.250000
1702		-33.203125
1703		-29.296875
1704		-31.250000
1705		-27.343750
1706		-29.296875
1707		-25.390625
1708		-27.343750
1709		-25.390625
1710		-27.343750
1711		-23.437500
1712		-25.390625
1713		-19.531250
1714		-21.484375
1715		-19.531250
1716		-19.531250
1717		-15.625000
1718		-17.578125
1719		-13.671875
1720		-15.625000
1721		-11.718750
1722		-13.671875
1723		-9.765625
1724		-11.718750
1725		-7.812500
1726		-9.765625
1727		-3.906250
1728		-5.859375
1729		-1.953125
1730		-3.906250
1731		0.000000
1732		-1.953125
1733		1.953125
1734		0.000000
1735		3.906250
1736		3.906250
1737		7.812500
1738		5.859375
1739		9.765625
1740		7.812500
1741		13.671875
1742		9.765625
1743		15.625000
1744		13.671875
1745		17.578125
1746		15.625000
1747		21.484375
1748		19.531250
1749		23.437500
1750		21.484375
1751		25.390625
1752		23.437500
1753		27.343750
1754		25.390625
1755		29.296875
1756		27.343750
1757		31.250000
1758		29.296875
1759		35.156250
1760		33.203125
1761		35.156250
1762		35.156250
1763		39.062500
1764		37.109375
1765		41.015625
1766		39.062500
1767		42.968750
1768		39.062500
1769		44.921875
1770		42.968750
1771		44.921875
1772		42.968750
1773		46.875000
1774		44.921875
1775		50.781250
1776		46.875000
1777		50.781250
1778		48.828125
1779		52.734375
1780		48.828125
1781		54.687500
1782		50.781250
1783		54.687500
1784		52.734375
1785		56.640625
1786		54.687500
1787		56.640625
1788		54.687500
1789		58.593750
1790		54.687500
1791		58.593750
1792		56.640625
1793		58.593750
1794		56.640625
1795		60.546875
1796		56.640625
1797		60.546875
1798		58.593750
1799		60.546875
1800		56.640625
1801		60.546875
1802		58.593750
1803		60.546875
1804		58.593750
1805		60.546875
1806		58.593750
1807		60.546875
1808		56.640625
1809		60.546875
1810		56.640625
1811		60.546875
1812		56.640625
1813		60.546875
1814		56.640625
1815		60.546875
1816		54.687500
1817		60.546875
1818		54.687500
1819		58.593750
1820		54.687500
1821		56.640625
1822		52.734375
1823		56.640625
1824		52.734375
1825		54.687500
1826		50.781250
1827		54.687500
1828		48.828125
1829		52.734375
1830		46.875000
1831		50.781250
1832		46.875000
1833		50.781250
1834		44.921875
1835		48.828125
1836		42.968750
1837		46.875000
1838		41.015625
1839		44.921875
1840		39.062500
1841		42.968750
1842		37.109375
1843		41.015625
1844		35.156250
1845		39.062500
1846		33.203125
1847		37.109375
1848		31.250000
1849		35.156250
1850		27.343750
1851		33.203125
1852		25.390625
1853		31.250000
1854		23.437500
1855		27.343750
1856		21.484375
1857		25.390625
1858		19.531250
1859		23.437500
1860		17.578125
1861		21.484375
1862		13.671875
1863		19.531250
1864		11.718750
1865		15.625000
1866		9.765625
1867		13.671875
1868		5.859375
1869		9.765625
1870		3.906250
1871		7.812500
1872		0.000000
1873		5.859375
1874		-1.953125
1875		3.906250
1876		-3.906250
1877		0.000000
1878		-5.859375
1879		-1.953125
1880		-7.812500
1881		-3.906250
1882		-11.718750
1883		-5.859375
1884		-13.671875
1885		-7.812500
1886		-15.625000
1887		-11.718750
1888		-17.578125
1889		-13.671875
1890		-19.531250
1891		-15.625000
1892		-21.484375
1893		-17.578125
1894		-23.437500
1895		-19.531250
1896		-25.390625
1897		-21.484375
1898		-27.343750
1899		-23.437500
1900		-29.296875
1901		-25.390625
1902		-31.250000
1903		-25.390625
1904		-33.203125
1905		-29.296875
1906		-35.156250
1907		-31.250000
1908		-35.156250
1909		-31.250000
1910		-37.109375
1911		-33.203125
1912		-37.109375
1913		-35.156250
1914		-39.062500
1915		-35.156250
1916		-39.062500
1917		-35.156250
1918		-41.015625
1919		-37.109375
1920		-41.015625
1921		-39.062500
1922		-41.015625
1923		-39.062500
1924		-41.015625
1925		-39.062500
1926		-42.968750
1927		-39.062500
1928		-42.968750
1929		-39.062500
1930		-42.968750
1931		-39.062500
1932		-41.015625
1933		-39.062500
1934		-41.015625
1935		-39.062500
1936		-42.968750
1937		-37.109375
1938		-41.015625
1939		-37.109375
1940		-41.015625
1941		-37.109375
1942		-39.062500
1943		-35.156250
1944		-39.062500
1945		-35.156250
1946		-37.109375
1947		-33.203125
1948		-37.109375
1949		-33.203125
1950		-35.156250
1951		-31.250000
1952		-33.203125
1953		-29.296875
1954		-31.250000
1955		-29.296875
1956		-29.296875
1957		-25.390625
1958		-29.296875
1959		-25.390625
1960		-27.343750
1961		-23.437500
1962		-25.390625
1963		-19.531250
1964		-23.437500
1965		-19.531250
1966		-21.484375
1967		-17.578125
1968		-19.531250
1969		-13.671875
1970		-17.578125
1971		-11.718750
1972		-13.671875
1973		-9.765625
1974		-11.718750
1975		-7.812500
1976		-9.765625
1977		-5.859375
1978		-7.812500
1979		-3.906250
1980		-5.859375
1981		0.000000
1982		-1.953125
1983		1.953125
1984		0.000000
1985		3.906250
1986		1.953125
1987		5.859375
1988		5.859375
1989		9.765625
1990		7.812500
1991		11.718750
1992		9.765625
1993		13.671875
1994		13.671875
1995		17.578125
1996		15.625000
1997		19.531250
1998		17.578125
1999		21.484375
2000		19.531250
2001		23.437500
2002		21.484375
2003		27.343750
2004		25.390625
2005		29.296875
2006		27.343750
2007		31.250000
2008		27.343750
2009		33.203125
2010		31.250000
2011		35.156250
2012		33.203125
2013		39.062500
2014		35.156250
2015		41.015625
2016		37.109375
2017		41.015625
2018		39.062500
2019		42.968750
2020		41.015625
2021		44.921875
2022		42.968750
2023		46.875000
2024		44.921875
2025		48.828125
2026		46.875000
2027		50.781250
2028		48.828125
2029		52.734375
2030		48.828125
2031		52.734375
2032		50.781250
2033		54.687500
2034		52.734375
2035		56.640625
2036		52.734375
2037		56.640625
2038		54.687500
2039		56.640625
2040		54.687500
2041		58.593750
2042		56.640625
2043		58.593750
2044		56.640625
2045		60.546875
2046		56.640625
2047		60.546875
2048		56.640625
2049		60.546875
2050		58.593750
2051		60.546875
2052		56.640625
2053		60.546875
2054		58.593750
2055		60.546875
2056		58.593750
2057		60.546875
2058		58.593750
2059		60.546875
2060		56.640625
2061		60.546875
2062		56.640625
2063		60.546875
2064		56.640625
2065		60.546875
2066		56.640625
2067		58.593750
2068		54.687500
2069		58.593750
2070		54.687500
2071		58.593750
2072		52.734375
2073		56.640625
2074		52.734375
2075		56.640625
2076		50.781250
2077		54.687500
2078		48.828125
2079		52.734375
2080		48.828125
2081		52.734375
2082		46.875000
2083		50.781250
2084		44.921875
2085		48.828125
2086		44.921875
2087		48.828125
2088		42.968750
2089		44.921875
2090		41.015625
2091		42.968750
2092		39.062500
2093		42.968750
2094		35.156250
2095		41.015625
2096		33.203125
2097		37.109375
2098		31.250000
2099		35.156250
2100		29.296875
2101		33.203125
2102		27.343750
2103		31.250000
2104		25.390625
2105		29.296875
2106		23.437500
2107		27.343750
2108		19.531250
2109		23.437500
2110		17.578125
2111		21.484375
2112		15.625000
2113		19.531250
2114		11.718750
2115		17.578125
2116		9.765625
2117		13.671875
2118		7.812500
2119		11.718750
2120		5.859375
2121		9.765625
2122		1.953125
2123		5.859375
2124		0.000000
2125		3.906250
2126		-3.906250
2127		3.906250
2128		-3.906250
2129		0.000000
2130		-7.812500
2131		-3.906250
2132		-9.765625
2133		-5.859375
2134		-11.718750
2135		-7.812500
2136		-15.625000
2137		-9.765625
2138		-17.578125
2139		-11.718750
2140		-19.531250
2141		-15.625000
2142		-21.484375
2143		-17.578125
2144		-23.437500
2145		-17.578125
2146		-25.390625
2147		-21.484375
2148		-27.343750
2149		-23.437500
2150		-27.343750
2151		-23.437500
2152		-31.250000
2153		-27.343750
2154		-31.250000
2155		-27.343750
2156		-33.203125
2157		-29.296875
2158		-35.156250
2159		-31.250000
2160		-37.109375
2161		-33.203125
2162		-37.109375
2163		-33.203125
2164		-39.062500
2165		-35.156250
2166		-39.062500
2167		-37.109375
2168		-41.015625
2169		-37.109375
2170		-41.015625
2171		-37.109375
2172		-41.015625
2173		-37.109375
2174		-41.015625
2175		-39.062500
2176		-42.968750
2177		-39.062500
2178		-42.968750
2179		-39.062500
2180		-42.968750
2181		-39.062500
2182		-42.968750
2183		-39.062500
2184		-42.968750
2185		-39.062500
2186		-41.015625
2187		-39.062500
2188		-42.968750
2189		-37.109375
2190		-41.015625
2191		-37.109375
2192		-39.062500
2193		-35.156250
2194		-39.062500
2195		-35.156250
2196		-37.109375
2197		-33.203125
2198		-37.109375
2199		-33.203125
2200		-35.156250
2201		-31.250000
2202		-35.156250
2203		-29.296875
2204		-33.203125
2205		-29.296875
2206		-31.250000
2207		-27.343750
2208		-29.296875
2209		-25.390625
2210		-27.343750
2211		-23.437500
2212		-27.343750
2213		-21.484375
2214		-23.437500
2215		-19.531250
2216		-21.484375
2217		-17.578125
2218		-19.531250
2219		-15.625000
2220		-17.578125
2221		-11.718750
2222		-15.625000
2223		-11.718750
2224		-13.671875
2225		-9.765625
2226		-11.718750
2227		-5.859375
2228		-7.812500
2229		-3.906250
2230		-5.859375
2231		0.000000
2232		-3.906250
2233		0.000000
2234		0.000000
2235		3.906250
2236		1.953125
2237		5.859375
2238		3.906250
2239		7.812500
2240		5.859375
2241		11.718750
2242		9.765625
2243		13.671875
2244		9.765625
2245		15.625000
2246		13.671875
2247		17.578125
2248		15.625000
2249		21.484375
2250		19.531250
2251		23.437500
2252		21.484375
2253		25.390625
2254		23.437500
2255		27.343750
2256		25.390625
2257		29.296875
2258		29.296875
2259		33.203125
2260		29.296875
2261		35.156250
2262		33.203125
2263		37.109375
2264		35.156250
2265		39.062500
2266		37.109375
2267		41.015625
2268		39.062500
2269		42.968750
2270		41.015625
2271		44.921875
2272		41.015625
2273		46.875000
2274		44.921875
2275		48.828125
2276		46.875000
2277		48.828125
2278		46.875000
2279		50.781250
2280		48.828125
2281		52.734375
2282		50.781250
2283		54.687500
2284		52.734375
2285		54.687500
2286		52.734375
2287		56.640625
2288		52.734375
2289		58.593750
2290		54.687500
2291		58.593750
2292		54.687500
2293		58.593750
2294		56.640625
2295		60.546875
2296		56.640625
2297		60.546875
2298		56.640625
2299		60.546875
2300		56.640625
2301		60.546875
2302		58.593750
2303		62.500000
2304		58.593750
2305		62.500000
2306		58.593750
2307		60.546875
2308		58.593750
2309		60.546875
2310		56.640625
2311		60.546875
2312		56.640625
2313		60.546875
2314		56.640625
2315		60.546875
2316		56.640625
2317		60.546875
2318		54.687500
2319		58.593750
2320		54.687500
2321		58.593750
2322		52.734375
2323		58.593750
2324		52.734375
2325		56.640625
2326		52.734375
2327		54.687500
2328		50.781250
2329		54.687500
2330		48.828125
2331		52.734375
2332		48.828125
2333		52.734375
2334		44.921875
2335		50.781250
2336		44.921875
2337		48.828125
2338		41.015625
2339		46.875000
2340		41.015625
2341		44.921875
2342		39.062500
2343		42.968750
2344		37.109375
2345		41.015625
2346		35.156250
2347		39.062500
2348		33.203125
2349		37.109375
2350		31.250000
2351		35.156250
2352		29.296875
2353		33.203125
2354		25.390625
2355		31.250000
2356		23.437500
2357		29.296875
2358		21.484375
2359		25.390625
2360		17.578125
2361		23.437500
2362		15.625000
2363		19.531250
2364		13.671875
2365		19.531250
2366		11.718750
2367		15.625000
2368		7.812500
2369		13.671875
2370		5.859375
2371		9.765625
2372		3.906250
2373		7.812500
2374		1.953125
2375		5.859375
2376		-1.953125
2377		3.906250
2378		-3.906250
2379		1.953125
2380		-5.859375
2381		-1.953125
2382		-7.812500
2383		-3.906250
2384		-11.718750
2385		-7.812500
2386		-13.671875
2387		-9.765625
2388		-15.625000
2389		-11.718750
2390		-17.578125
2391		-13.671875
2392		-19.531250
2393		-15.625000
2394		-21.484375
2395		-17.578125
2396		-23.437500
2397		-19.531250
2398		-25.390625
2399		-21.484375
2400		-27.343750
2401		-23.437500
2402		-29.296875
2403		-25.390625
2404		-31.250000
2405		-27.343750
2406		-33.203125
2407		-29.296875
2408		-33.203125
2409		-31.250000
2410		-35.156250
2411		-33.203125
2412		-37.109375
2413		-33.203125
2414		-37.109375
2415		-33.203125
2416		-39.062500
2417		-35.156250
2418		-39.062500
2419		-37.109375
2420		-41.015625
2421		-37.109375
2422		-41.015625
2423		-37.109375
2424		-41.015625
2425		-39.062500
2426		-42.968750
2427		-39.062500
2428		-42.968750
2429		-39.062500
2430		-41.015625
2431		-39.062500
2432		-42.968750
2433		-39.062500
2434		-41.015625
2435		-39.062500
2436		-41.015625
2437		-37.109375
2438		-41.015625
2439		-37.109375
2440		-41.015625
2441		-37.109375
2442		-39.062500
2443		-37.109375
2444		-39.062500
2445		-35.156250
2446		-37.109375
2447		-35.156250
2448		-37.109375
2449		-33.203125
2450		-35.156250
2451		-33.203125
2452		-35.156250
2453		-31.250000
2454		-33.203125
2455		-29.296875
2456		-33.203125
2457		-27.343750
2458		-29.296875
2459		-25.390625
2460		-27.343750
2461		-25.390625
2462		-27.343750
2463		-21.484375
2464		-23.437500
2465		-21.484375
2466		-21.484375
2467		-19.531250
2468		-19.531250
2469		-15.625000
2470		-17.578125
2471		-13.671875
2472		-15.625000
2473		-11.718750
2474		-15.625000
2475		-9.765625
2476		-11.718750
2477		-5.859375
2478		-7.812500
2479		-5.859375
2480		-5.859375
2481		-1.953125
2482		-3.906250
2483		0.000000
2484		-1.953125
2485		3.906250
2486		0.000000
2487		5.859375
2488		1.953125
2489		7.812500
2490		5.859375
2491		9.765625
2492		7.812500
2493		13.671875
2494		11.718750
2495		15.625000
2496		13.671875
2497		17.578125
2498		15.625000
2499		19.531250
2500		17.578125
2501		21.484375
2502		21.484375
2503		25.390625
2504		23.437500
2505		27.343750
2506		25.390625
2507		31.250000
2508		27.343750
2509		31.250000
2510		29.296875
2511		33.203125
2512		31.250000
2513		37.109375
2514		35.156250
2515		39.062500
2516		37.109375
2517		41.015625
2518		39.062500
2519		42.968750
2520		39.062500
2521		44.921875
2522		42.968750
2523		46.875000
2524		42.968750
2525		46.875000
2526		46.875000
2527		48.828125
2528		46.875000
2529		50.781250
2530		48.828125
2531		52.734375
2532		48.828125
2533		54.687500
2534		52.734375
2535		54.687500
2536		52.734375
2537		56.640625
2538		54.687500
2539		56.640625
2540		54.687500
2541		58.593750
2542		56.640625
2543		58.593750
2544		56.640625
2545		58.593750
2546		56.640625
2547		60.546875
2548		56.640625
2549		60.546875
2550		56.640625
2551		60.546875
2552		58.593750
2553		62.500000
2554		58.593750
2555		60.546875
2556		58.593750
2557		62.500000
2558		58.593750
2559		62.500000
2560		58.593750
2561		60.546875
2562		56.640625
2563		60.546875
2564		56.640625
2565		60.546875
2566		56.640625
2567		60.546875
2568		56.640625
2569		58.593750
2570		54.687500
2571		58.593750
2572		54.687500
2573		58.593750
2574		54.687500
2575		56.640625
2576		52.734375
2577		54.687500
2578		50.781250
2579		54.687500
2580		48.828125
2581		54.687500
2582		48.828125
2583		52.734375
2584		46.875000
2585		50.781250
2586		44.921875
2587		48.828125
2588		42.968750
2589		46.875000
2590		41.015625
2591		46.875000
2592		41.015625
2593		42.968750
2594		37.109375
2595		42.968750
2596		35.156250
2597		41.015625
2598		33.203125
2599		37.109375
2600		31.250000
2601		37.109375
2602		29.296875
2603		33.203125
2604		27.343750
2605		31.250000
2606		25.390625
2607		29.296875
2608		23.437500
2609		27.343750
2610		19.531250
2611		23.437500
2612		17.578125
2613		21.484375
2614		13.671875
2615		19.531250
2616		11.718750
2617		17.578125
2618		9.765625
2619		13.671875
2620		7.812500
2621		11.718750
2622		3.906250
2623		9.765625
2624		1.953125
2625		7.812500
2626		0.000000
2627		3.906250
2628		-1.953125
2629		1.953125
2630		-5.859375
2631		0.000000
2632		-7.812500
2633		-1.953125
2634		-9.765625
2635		-5.859375
2636		-13.671875
2637		-7.812500
2638		-13.671875
2639		-9.765625
2640		-17.578125
2641		-11.718750
2642		-19.531250
2643		-13.671875
2644		-21.484375
2645		-17.578125
2646		-23.437500
2647		-19.531250
2648		-25.390625
2649		-21.484375
2650		-27.343750
2651		-23.437500
2652		-29.296875
2653		-23.437500
2654		-31.250000
2655		-27.343750
2656		-31.250000
2657		-27.343750
2658		-33.203125
2659		-29.296875
2660		-35.156250
2661		-31.250000
2662		-37.109375
2663		-33.203125
2664		-37.109375
2665		-33.203125
2666		-39.062500
2667		-35.156250
2668		-39.062500
2669		-35.156250
2670		-39.062500
2671		-37.109375
2672		-41.015625
2673		-37.109375
2674		-42.968750
2675		-37.109375
2676		-42.968750
2677		-39.062500
2678		-41.015625
2679		-39.062500
2680		-41.015625
2681		-39.062500
2682		-41.015625
2683		-39.062500
2684		-41.015625
2685		-39.062500
2686		-41.015625
2687		-39.062500
2688		-41.015625
2689		-37.109375
2690		-41.015625
2691		-37.109375
2692		-41.015625
2693		-37.109375
2694		-39.062500
2695		-35.156250
2696		-37.109375
2697		-35.156250
2698		-37.109375
2699		-33.203125
2700		-37.109375
2701		-31.250000
2702		-35.156250
2703		-31.250000
2704		-33.203125
2705		-29.296875
2706		-31.250000
2707		-29.296875
2708		-31.250000
2709		-25.390625
2710		-27.343750
2711		-25.390625
2712		-27.343750
2713		-23.437500
2714		-25.390625
2715		-21.484375
2716		-23.437500
2717		-19.531250
2718		-21.484375
2719		-17.578125
2720		-17.578125
2721		-13.671875
2722		-15.625000
2723		-11.718750
2724		-13.671875
2725		-9.765625
2726		-11.718750
2727		-7.812500
2728		-9.765625
2729		-5.859375
2730		-7.812500
2731		-3.906250
2732		-5.859375
2733		0.000000
2734		-1.953125
2735		1.953125
2736		0.000000
2737		3.906250
2738		1.953125
2739		7.812500
2740		3.906250
2741		9.765625
2742		7.812500
2743		11.718750
2744		9.765625
2745		13.671875
2746		13.671875
2747		17.578125
2748		15.625000
2749		19.531250
2750		17.578125
2751		21.484375
2752		19.531250
2753		23.437500
2754		21.484375
2755		27.343750
2756		25.390625
2757		29.296875
2758		27.343750
2759		33.203125
2760		29.296875
2761		33.203125
2762		31.250000
2763		35.156250
2764		33.203125
2765		37.109375
2766		37.109375
2767		39.062500
2768		39.062500
2769		42.968750
2770		41.015625
2771		44.921875
2772		41.015625
2773		44.921875
2774		42.968750
2775		46.875000
2776		44.921875
2777		48.828125
2778		46.875000
2779		50.781250
2780		48.828125
2781		52.734375
2782		48.828125
2783		54.687500
2784		50.781250
2785		54.687500
2786		52.734375
2787		54.687500
2788		52.734375
2789		56.640625
2790		54.687500
2791		58.593750
2792		54.687500
2793		58.593750
2794		56.640625
2795		58.593750
2796		56.640625
2797		60.546875
2798		56.640625
2799		60.546875
2800		58.593750
2801		60.546875
2802		58.593750
2803		62.500000
2804		58.593750
2805		62.500000
2806		58.593750
2807		62.500000
2808		58.593750
2809		62.500000
2810		58.593750
2811		60.546875
2812		58.593750
2813		60.546875
2814		56.640625
2815		60.546875
2816		56.640625
2817		60.546875
2818		56.640625
2819		60.546875
2820		54.687500
2821		58.593750
2822		54.687500
2823		58.593750
2824		54.687500
2825		56.640625
2826		52.734375
2827		56.640625
2828		52.734375
2829		54.687500
2830		50.781250
2831		52.734375
2832		48.828125
2833		52.734375
2834		46.875000
2835		50.781250
2836		46.875000
2837		48.828125
2838		42.968750
2839		48.828125
2840		41.015625
2841		46.875000
2842		39.062500
2843		44.921875
2844		39.062500
2845		42.968750
2846		37.109375
2847		41.015625
2848		35.156250
2849		39.062500
2850		31.250000
2851		37.109375
2852		29.296875
2853		35.156250
2854		27.343750
2855		33.203125
2856		25.390625
2857		29.296875
2858		23.437500
2859		27.343750
2860		21.484375
2861		25.390625
2862		17.578125
2863		23.437500
2864		15.625000
2865		19.531250
2866		13.671875
2867		17.578125
2868		9.765625
2869		15.625000
2870		7.812500
2871		13.671875
2872		5.859375
2873		9.765625
2874		3.906250
2875		7.812500
2876		0.000000
2877		5.859375
2878		-1.953125
2879		1.953125
2880		-3.906250
2881		0.000000
2882		-7.812500
2883		-1.953125
2884		-7.812500
2885		-3.906250
2886		-11.718750
2887		-7.812500
2888		-13.671875
2889		-9.765625
2890		-15.625000
2891		-11.718750
2892		-19.531250
2893		-13.671875
2894		-19.531250
2895		-15.625000
2896		-21.484375
2897		-17.578125
2898		-23.437500
2899		-19.531250
2900		-25.390625
2901		-21.484375
2902		-27.343750
2903		-23.437500
2904		-29.296875
2905		-25.390625
2906		-31.250000
2907		-27.343750
2908		-33.203125
2909		-29.296875
2910		-35.156250
2911		-31.250000
2912		-35.156250
2913		-31.250000
2914		-37.109375
2915		-33.203125
2916		-37.109375
2917		-33.203125
2918		-39.062500
2919		-35.156250
2920		-39.062500
2921		-35.156250
2922		-41.015625
2923		-37.109375
2924		-41.015625
2925		-37.109375
2926		-41.015625
2927		-37.109375
2928		-41.015625
2929		-37.109375
2930		-41.015625
2931		-39.062500
2932		-42.968750
2933		-37.109375
2934		-41.015625
2935		-37.109375
2936		-41.015625
2937		-39.062500
2938		-41.015625
2939		-37.109375
2940		-39.062500
2941		-37.109375
2942		-39.062500
2943		-37.109375
2944		-39.062500
2945		-35.156250
2946		-37.109375
2947		-35.156250
2948		-37.109375
2949		-33.203125
2950		-35.156250
2951		-33.203125
2952		-35.156250
2953		-31.250000
2954		-33.203125
2955		-29.296875
2956		-31.250000
2957		-27.343750
2958		-31.250000
2959		-25.390625
2960		-29.296875
2961		-23.437500
2962		-27.343750
2963		-23.437500
2964		-25.390625
2965		-19.531250
2966		-23.437500
2967		-19.531250
2968		-21.484375
2969		-17.578125
2970		-19.531250
2971		-15.625000
2972		-15.625000
2973		-11.718750
2974		-15.625000
2975		-9.765625
2976		-13.671875
2977		-7.812500
2978		-9.765625
2979		-5.859375
2980		-7.812500
2981		-3.906250
2982		-5.859375
2983		0.000000
2984		-1.953125
2985		1.953125
2986		0.000000
2987		3.906250
2988		1.953125
2989		7.812500
2990		3.906250
2991		9.765625
2992		7.812500
2993		11.718750
2994		9.765625
2995		13.671875
2996		11.718750
2997		17.578125
2998		15.625000
2999		19.531250
3000		15.625000
3001		21.484375
3002		19.531250
3003		23.437500
3004		21.484375
3005		25.390625
3006		25.390625
3007		29.296875
3008		27.343750
3009		31.250000
3010		29.296875
3011		33.203125
3012		31.250000
3013		35.156250
3014		33.203125
3015		37.109375
3016		35.156250
3017		41.015625
3018		37.109375
3019		41.015625
3020		39.062500
3021		42.968750
3022		41.015625
3023		44.921875
3024		42.968750
3025		46.875000
3026		44.921875
3027		48.828125
3028		46.875000
3029		50.781250
3030		48.828125
3031		50.781250
3032		50.781250
3033		54.687500
3034		50.781250
3035		54.687500
3036		52.734375
3037		56.640625
3038		52.734375
3039		56.640625
3040		54.687500
3041		58.593750
3042		56.640625
3043		58.593750
3044		56.640625
3045		60.546875
3046		58.593750
3047		60.546875
3048		58.593750
3049		60.546875
3050		58.593750
3051		62.500000
3052		58.593750
3053		62.500000
3054		58.593750
3055		62.500000
3056		58.593750
3057		62.500000
3058		58.593750
3059		62.500000
3060		58.593750
3061		62.500000
3062		58.593750
3063		62.500000
3064		58.593750
3065		60.546875
3066		58.593750
3067		60.546875
3068		56.640625
3069		60.546875
3070		56.640625
3071		60.546875
3072		56.640625
3073		58.593750
3074		54.687500
3075		58.593750
3076		54.687500
3077		56.640625
3078		50.781250
3079		56.640625
3080		52.734375
3081		54.687500
3082		50.781250
3083		52.734375
3084		48.828125
3085		52.734375
3086		46.875000
3087		50.781250
3088		46.875000
3089		48.828125
3090		42.968750
3091		46.875000
3092		41.015625
3093		44.921875
3094		41.015625
3095		44.921875
3096		39.062500
3097		42.968750
3098		37.109375
3099		39.062500
3100		35.156250
3101		37.109375
3102		31.250000
3103		35.156250
3104		29.296875
3105		33.203125
3106		27.343750
3107		31.250000
3108		25.390625
3109		29.296875
3110		21.484375
3111		27.343750
3112		19.531250
3113		25.390625
3114		17.578125
3115		21.484375
3116		13.671875
3117		19.531250
3118		11.718750
3119		17.578125
3120		9.765625
3121		13.671875
3122		7.812500
3123		11.718750
3124		5.859375
3125		9.765625
3126		1.953125
3127		7.812500
3128		0.000000
3129		3.906250
3130		-1.953125
3131		1.953125
3132		-3.906250
3133		0.000000
3134		-7.812500
3135		-1.953125
3136		-9.765625
3137		-5.859375
3138		-11.718750
3139		-7.812500
3140		-13.671875
3141		-9.765625
3142		-17.578125
3143		-11.718750
3144		-17.578125
3145		-15.625000
3146		-19.531250
3147		-15.625000
3148		-21.484375
3149		-19.531250
3150		-25.390625
3151		-21.484375
3152		-25.390625
3153		-23.437500
3154		-27.343750
3155		-25.390625
3156		-29.296875
3157		-25.390625
3158		-31.250000
3159		-27.343750
3160		-33.203125
3161		-29.296875
3162		-35.156250
3163		-29.296875
3164		-35.156250
3165		-31.250000
3166		-35.156250
3167		-33.203125
3168		-37.109375
3169		-33.203125
3170		-39.062500
3171		-35.156250
3172		-39.062500
3173		-35.156250
3174		-39.062500
3175		-37.109375
3176		-39.062500
3177		-37.109375
3178		-41.015625
3179		-37.109375
3180		-41.015625
3181		-37.109375
3182		-41.015625
3183		-37.109375
3184		-41.015625
3185		-37.109375
3186		-41.015625
3187		-37.109375
3188		-39.062500
3189		-37.109375
3190		-39.062500
3191		-37.109375
3192		-39.062500
3193		-35.156250
3194		-39.062500
3195		-35.156250
3196		-37.109375
3197		-35.156250
3198		-37.109375
3199		-33.203125
3200		-35.156250
3201		-31.250000
3202		-35.156250
3203		-31.250000
3204		-33.203125
3205		-29.296875
3206		-31.250000
3207		-27.343750
3208		-29.296875
3209		-27.343750
3210		-29.296875
3211		-25.390625
3212		-27.343750
3213		-23.437500
3214		-25.390625
3215		-21.484375
3216		-23.437500
3217		-19.531250
3218		-21.484375
3219		-17.578125
3220		-19.531250
3221		-15.625000
3222		-17.578125
3223		-11.718750
3224		-13.671875
3225		-11.718750
3226		-11.718750
3227		-7.812500
3228		-9.765625
3229		-5.859375
3230		-7.812500
3231		-3.906250
3232		-5.859375
3233		-1.953125
3234		-1.953125
3235		1.953125
3236		0.000000
3237		3.906250
3238		1.953125
3239		7.812500
3240		3.906250
3241		7.812500
3242		5.859375
3243		11.718750
3244		9.765625
3245		13.671875
3246		11.718750
3247		15.625000
3248		13.671875
3249		19.531250
3250		17.578125
3251		21.484375
3252		19.531250
3253		23.437500
3254		21.484375
3255		27.343750
3256		23.437500
3257		29.296875
3258		27.343750
3259		31.250000
3260		29.296875
3261		33.203125
3262		31.250000
3263		35.156250
3264		33.203125
3265		37.109375
3266		35.156250
3267		39.062500
3268		37.109375
3269		41.015625
3270		39.062500
3271		44.921875
3272		41.015625
3273		44.921875
3274		42.968750
3275		46.875000
3276		44.921875
3277		48.828125
3278		46.875000
3279		50.781250
3280		48.828125
3281		52.734375
3282		50.781250
3283		52.734375
3284		50.781250
3285		54.687500
3286		52.734375
3287		56.640625
3288		54.687500
3289		56.640625
3290		54.687500
3291		58.593750
3292		56.640625
3293		58.593750
3294		56.640625
3295		60.546875
3296		56.640625
3297		62.500000
3298		58.593750
3299		60.546875
3300		58.593750
3301		62.500000
3302		58.593750
3303		62.500000
3304		58.593750
3305		62.500000
3306		60.546875
3307		62.500000
3308		60.546875
3309		62.500000
3310		60.546875
3311		62.500000
3312		58.593750
3313		62.500000
3314		58.593750
3315		62.500000
3316		58.593750
3317		60.546875
3318		58.593750
3319		62.500000
3320		56.640625
3321		60.546875
3322		56.640625
3323		60.546875
3324		56.640625
3325		58.593750
3326		54.687500
3327		58.593750
3328		52.734375
3329		56.640625
3330		52.734375
3331		56.640625
3332		50.781250
3333		54.687500
3334		50.781250
3335		52.734375
3336		48.828125
3337		52.734375
3338		46.875000
3339		50.781250
3340		44.921875
3341		48.828125
3342		42.968750
3343		46.875000
3344		41.015625
3345		44.921875
3346		39.062500
3347		42.968750
3348		37.109375
3349		41.015625
3350		35.156250
3351		39.062500
3352		33.203125
3353		37.109375
3354		31.250000
3355		35.156250
3356		29.296875
3357		33.203125
3358		25.390625
3359		31.250000
3360		23.437500
3361		27.343750
3362		21.484375
3363		25.390625
3364		19.531250
3365		23.437500
3366		15.625000
3367		21.484375
3368		13.671875
3369		17.578125
3370		11.718750
3371		15.625000
3372		9.765625
3373		13.671875
3374		5.859375
3375		11.718750
3376		3.906250
3377		7.812500
3378		0.000000
3379		5.859375
3380		-1.953125
3381		3.906250
3382		-3.906250
3383		0.000000
3384		-5.859375
3385		-1.953125
3386		-7.812500
3387		-3.906250
3388		-11.718750
3389		-5.859375
3390		-13.671875
3391		-9.765625
3392		-15.625000
3393		-11.718750
3394		-17.578125
3395		-13.671875
3396		-19.531250
3397		-15.625000
3398		-21.484375
3399		-17.578125
3400		-23.437500
3401		-19.531250
3402		-25.390625
3403		-21.484375
3404		-27.343750
3405		-23.437500
3406		-29.296875
3407		-25.390625
3408		-29.296875
3409		-27.343750
3410		-31.250000
3411		-29.296875
3412		-33.203125
3413		-29.296875
3414		-33.203125
3415		-31.250000
3416		-35.156250
3417		-33.203125
3418		-35.156250
3419		-33.203125
3420		-37.109375
3421		-33.203125
3422		-39.062500
3423		-35.156250
3424		-39.062500
3425		-35.156250
3426		-39.062500
3427		-35.156250
3428		-39.062500
3429		-37.109375
3430		-41.015625
3431		-37.109375
3432		-41.015625
3433		-37.109375
3434		-39.062500
3435		-37.109375
3436		-39.062500
3437		-35.156250
3438		-41.015625
3439		-37.109375
3440		-39.062500
3441		-35.156250
3442		-39.062500
3443		-35.156250
3444		-39.062500
3445		-35.156250
3446		-37.109375
3447		-33.203125
3448		-37.109375
3449		-33.203125
3450		-35.156250
3451		-31.250000
3452		-33.203125
3453		-31.250000
3454		-33.203125
3455		-29.296875
3456		-31.250000
3457		-27.343750
3458		-31.250000
3459		-27.343750
3460		-27.343750
3461		-25.390625
3462		-27.343750
3463		-23.437500
3464		-25.390625
3465		-19.531250
3466		-23.437500
3467		-19.531250
3468		-21.484375
3469		-17.578125
3470		-19.531250
3471		-15.625000
3472		-17.578125
3473		-11.718750
3474		-13.671875
3475		-11.718750
3476		-13.671875
3477		-9.765625
3478		-9.765625
3479		-5.859375
3480		-7.812500
3481		-3.906250
3482		-5.859375
3483		-1.953125
3484		-1.953125
3485		0.000000
3486		0.000000
3487		3.906250
3488		0.000000
3489		5.859375
3490		3.906250
3491		7.812500
3492		5.859375
3493		11.718750
3494		9.765625
3495		13.671875
3496		11.718750
3497		15.625000
3498		13.671875
3499		19.531250
3500		17.578125
3501		21.484375
3502		19.531250
3503		23.437500
3504		21.484375
3505		25.390625
3506		23.437500
3507		27.343750
3508		25.390625
3509		31.250000
3510		29.296875
3511		33.203125
3512		31.250000
3513		35.156250
3514		33.203125
3515		37.109375
3516		35.156250
3517		39.062500
3518		37.109375
3519		41.015625
3520		39.062500
3521		42.968750
3522		41.015625
3523		44.921875
3524		42.968750
3525		46.875000
3526		44.921875
3527		48.828125
3528		46.875000
3529		50.781250
3530		48.828125
3531		52.734375
3532		48.828125
3533		52.734375
3534		50.781250
3535		54.687500
3536		52.734375
3537		56.640625
3538		52.734375
3539		56.640625
3540		54.687500
3541		58.593750
3542		54.687500
3543		58.593750
3544		56.640625
3545		60.546875
3546		56.640625
3547		60.546875
3548		58.593750
3549		62.500000
3550		58.593750
3551		60.546875
3552		60.546875
3553		62.500000
3554		58.593750
3555		64.453125
3556		60.546875
3557		62.500000
3558		60.546875
3559		62.500000
3560		58.593750
3561		62.500000
3562		60.546875
3563		62.500000
3564		58.593750
3565		62.500000
3566		58.593750
3567		62.500000
3568		58.593750
3569		60.546875
3570		56.640625
3571		62.500000
3572		56.640625
3573		60.546875
3574		56.640625
3575		60.546875
3576		56.640625
3577		58.593750
3578		54.687500
3579		58.593750
3580		52.734375
3581		56.640625
3582		50.781250
3583		54.687500
3584		50.781250
3585		54.687500
3586		48.828125
3587		52.734375
3588		46.875000
3589		50.781250
3590		46.875000
3591		48.828125
3592		44.921875
3593		48.828125
3594		42.968750
3595		44.921875
3596		41.015625
3597		44.921875
3598		37.109375
3599		42.968750
3600		37.109375
3601		41.015625
3602		33.203125
3603		37.109375
3604		31.250000
3605		35.156250
3606		29.296875
3607		33.203125
3608		27.343750
3609		31.250000
3610		25.390625
3611		29.296875
3612		23.437500
3613		27.343750
3614		19.531250
3615		23.437500
3616		17.578125
3617		21.484375
3618		15.625000
3619		19.531250
3620		13.671875
3621		17.578125
3622		9.765625
3623		15.625000
3624		7.812500
3625		11.718750
3626		5.859375
3627		9.765625
3628		1.953125
3629		7.812500
3630		0.000000
3631		3.906250
3632		-1.953125
3633		1.953125
3634		-5.859375
3635		0.000000
3636		-7.812500
3637		-3.906250
3638		-9.765625
3639		-5.859375
3640		-11.718750
3641		-7.812500
3642		-13.671875
3643		-9.765625
3644		-17.578125
3645		-11.718750
3646		-17.578125
3647		-13.671875
3648		-21.484375
3649		-15.625000
3650		-21.484375
3651		-17.578125
3652		-23.437500
3653		-21.484375
3654		-25.390625
3655		-23.437500
3656		-27.343750
3657		-23.437500
3658		-29.296875
3659		-25.390625
3660		-31.250000
3661		-27.343750
3662		-33.203125
3663		-29.296875
3664		-35.156250
3665		-29.296875
3666		-37.109375
3667		-31.250000
3668		-35.156250
3669		-33.203125
3670		-37.109375
3671		-33.203125
3672		-37.109375
3673		-35.156250
3674		-39.062500
3675		-35.156250
3676		-39.062500
3677		-35.156250
3678		-39.062500
3679		-35.156250
3680		-39.062500
3681		-37.109375
3682		-41.015625
3683		-37.109375
3684		-39.062500
3685		-37.109375
3686		-39.062500
3687		-37.109375
3688		-41.015625
3689		-35.156250
3690		-39.062500
3691		-35.156250
3692		-39.062500
3693		-35.156250
3694		-39.062500
3695		-35.156250
3696		-37.109375
3697		-33.203125
3698		-37.109375
3699		-33.203125
3700		-35.156250
3701		-31.250000
3702		-35.156250
3703		-31.250000
3704		-33.203125
3705		-29.296875
3706		-33.203125
3707		-27.343750
3708		-31.250000
3709		-25.390625
3710		-29.296875
3711		-25.390625
3712		-27.343750
3713		-23.437500
3714		-25.390625
3715		-21.484375
3716		-23.437500
3717		-19.531250
3718		-23.437500
3719		-17.578125
3720		-19.531250
3721		-15.625000
3722		-17.578125
3723		-13.671875
3724		-15.625000
3725		-11.718750
3726		-13.671875
3727		-9.765625
3728		-11.718750
3729		-7.812500
3730		-9.765625
3731		-3.906250
3732		-5.859375
3733		-1.953125
3734		-3.906250
3735		0.000000
3736		-1.953125
3737		1.953125
3738		0.000000
3739		5.859375
3740		1.953125
3741		7.812500
3742		5.859375
3743		9.765625
3744		7.812500
3745		11.718750
3746		11.718750
3747		15.625000
3748		13.671875
3749		17.578125
3750		15.625000
3751		21.484375
3752		17.578125
3753		21.484375
3754		21.484375
3755		25.390625
3756		23.437500
3757		27.343750
3758		25.390625
3759		29.296875
3760		27.343750
3761		31.250000
3762		31.250000
3763		33.203125
3764		33.203125
3765		37.109375
3766		33.203125
3767		39.062500
3768		37.109375
3769		41.015625
3770		39.062500
3771		42.968750
3772		41.015625
3773		44.921875
3774		42.968750
3775		46.875000
3776		44.921875
3777		48.828125
3778		46.875000
3779		48.828125
3780		46.875000
3781		52.734375
3782		48.828125
3783		52.734375
3784		50.781250
3785		54.687500
3786		52.734375
3787		54.687500
3788		52.734375
3789		56.640625
3790		54.687500
3791		58.593750
3792		54.687500
3793		58.593750
3794		56.640625
3795		60.546875
3796		56.640625
3797		60.546875
3798		58.593750
3799		60.546875
3800		58.593750
3801		62.500000
3802		58.593750
3803		62.500000
3804		58.593750
3805		62.500000
3806		58.593750
3807		62.500000
3808		60.546875
3809		62.500000
3810		60.546875
3811		62.500000
3812		60.546875
3813		62.500000
3814		60.546875
3815		62.500000
3816		58.593750
3817		62.500000
3818		58.593750
3819		62.500000
3820		58.593750
3821		60.546875
3822		56.640625
3823		60.546875
3824		56.640625
3825		60.546875
3826		56.640625
3827		58.593750
3828		54.687500
3829		58.593750
3830		52.734375
3831		56.640625
3832		52.734375
3833		56.640625
3834		48.828125
3835		54.687500
3836		48.828125
3837		52.734375
3838		48.828125
3839		50.781250
3840		44.921875
3841		50.781250
3842		44.921875
3843		48.828125
3844		42.968750
3845		46.875000
3846		41.015625
3847		44.921875
3848		39.062500
3849		42.968750
3850		37.109375
3851		41.015625
3852		35.156250
3853		39.062500
3854		33.203125
3855		37.109375
3856		29.296875
3857		35.156250
3858		27.343750
3859		31.250000
3860		25.390625
3861		29.296875
3862		23.437500
3863		27.343750
3864		19.531250
3865		25.390625
3866		19.531250
3867		23.437500
3868		15.625000
3869		21.484375
3870		13.671875
3871		17.578125
3872		11.718750
3873		15.625000
3874		7.812500
3875		13.671875
3876		5.859375
3877		9.765625
3878		3.906250
3879		7.812500
3880		0.000000
3881		5.859375
3882		-1.953125
3883		1.953125
3884		-3.906250
3885		0.000000
3886		-5.859375
3887		-1.953125
3888		-7.812500
3889		-5.859375
3890		-11.718750
3891		-7.812500
3892		-13.671875
3893		-9.765625
3894		-15.625000
3895		-11.718750
3896		-17.578125
3897		-13.671875
3898		-19.531250
3899		-15.625000
3900		-21.484375
3901		-17.578125
3902		-23.437500
3903		-19.531250
3904		-25.390625
3905		-21.484375
3906		-27.343750
3907		-23.437500
3908		-29.296875
3909		-25.390625
3910		-31.250000
3911		-27.343750
3912		-31.250000
3913		-27.343750
3914		-33.203125
3915		-29.296875
3916		-35.156250
3917		-31.250000
3918		-37.109375
3919		-31.250000
3920		-37.109375
3921		-33.203125
3922		-37.109375
3923		-35.156250
3924		-39.062500
3925		-35.156250
3926		-39.062500
3927		-35.156250
3928		-39.062500
3929		-37.109375
3930		-39.062500
3931		-37.109375
3932		-41.015625
3933		-37.109375
3934		-39.062500
3935		-37.109375
3936		-41.015625
3937		-37.109375
3938		-39.062500
3939		-37.109375
3940		-39.062500
3941		-37.109375
3942		-39.062500
3943		-35.156250
3944		-39.062500
3945		-35.156250
3946		-37.109375
3947		-35.156250
3948		-37.109375
3949		-33.203125
3950		-35.156250
3951		-33.203125
3952		-35.156250
3953		-31.250000
3954		-33.203125
3955		-31.250000
3956		-33.203125
3957		-29.296875
3958		-33.203125
3959		-27.343750
3960		-29.296875
3961		-25.390625
3962		-27.343750
3963		-25.390625
3964		-27.343750
3965		-21.484375
3966		-25.390625
3967		-21.484375
3968		-23.437500
3969		-17.578125
3970		-21.484375
3971		-17.578125
3972		-19.531250
3973		-15.625000
3974		-17.578125
3975		-11.718750
3976		-13.671875
3977		-9.765625
3978		-11.718750
3979		-7.812500
3980		-9.765625
3981		-5.859375
3982		-7.812500
3983		-3.906250
3984		-5.859375
3985		-1.953125
3986		-3.906250
3987		1.953125
3988		0.000000
3989		3.906250
3990		1.953125
3991		7.812500
3992		3.906250
3993		7.812500
3994		5.859375
3995		11.718750
3996		9.765625
3997		13.671875
3998		11.718750
3999		15.625000
4000		13.671875
4001		19.531250
4002		17.578125
4003		21.484375
4004		19.531250
4005		23.437500
4006		21.484375
4007		25.390625
4008		25.390625
4009		27.343750
4010		25.390625
4011		31.250000
4012		29.296875
4013		33.203125
4014		31.250000
4015		35.156250
4016		33.203125
4017		37.109375
4018		35.156250
4019		39.062500
4020		37.109375
4021		41.015625
4022		39.062500
4023		42.968750
4024		41.015625
4025		46.875000
4026		42.968750
4027		46.875000
4028		44.921875
4029		50.781250
4030		46.875000
4031		50.781250
4032		46.875000
4033		52.734375
4034		50.781250
4035		54.687500
4036		50.781250
4037		54.687500
4038		52.734375
4039		56.640625
4040		54.687500
4041		56.640625
4042		54.687500
4043		58.593750
4044		54.687500
4045		60.546875
4046		56.640625
4047		60.546875
4048		56.640625
4049		60.546875
4050		56.640625
4051		62.500000
4052		58.593750
4053		62.500000
4054		58.593750
4055		62.500000
4056		58.593750
4057		62.500000
4058		58.593750
4059		64.453125
4060		58.593750
4061		64.453125
4062		58.593750
4063		62.500000
4064		58.593750
4065		62.500000
4066		58.593750
4067		62.500000
4068		58.593750
4069		62.500000
4070		56.640625
4071		62.500000
4072		58.593750
4073		60.546875
4074		56.640625
4075		60.546875
4076		54.687500
4077		60.546875
4078		54.687500
4079		58.593750
4080		52.734375
4081		58.593750
4082		52.734375
4083		56.640625
4084		50.781250
4085		56.640625
4086		48.828125
4087		54.687500
4088		48.828125
4089		52.734375
4090		46.875000
4091		50.781250
4092		44.921875
4093		48.828125
4094		42.968750
4095		48.828125
4096		41.015625
4097		46.875000
4098		39.062500
4099		44.921875
4100		37.109375
4101		42.968750
4102		35.156250
4103		41.015625
4104		33.203125
4105		37.109375
4106		31.250000
4107		35.156250
4108		27.343750
4109		33.203125
4110		25.390625
4111		31.250000
4112		23.437500
4113		29.296875
4114		21.484375
4115		27.343750
4116		17.578125
4117		25.390625
4118		15.625000
4119		21.484375
4120		13.671875
4121		19.531250
4122		11.718750
4123		15.625000
4124		9.765625
4125		13.671875
4126		5.859375
4127		11.718750
4128		3.906250
4129		9.765625
4130		0.000000
4131		7.812500
4132		-1.953125
4133		3.906250
4134		-3.906250
4135		1.953125
4136		-5.859375
4137		0.000000
4138		-7.812500
4139		-1.953125
4140		-9.765625
4141		-5.859375
4142		-11.718750
4143		-7.812500
4144		-15.625000
4145		-11.718750
4146		-17.578125
4147		-13.671875
4148		-19.531250
4149		-15.625000
4150		-21.484375
4151		-17.578125
4152		-23.437500
4153		-19.531250
4154		-25.390625
4155		-21.484375
4156		-27.343750
4157		-23.437500
4158		-29.296875
4159		-25.390625
4160		-29.296875
4161		-27.343750
4162		-31.250000
4163		-29.296875
4164		-33.203125
4165		-29.296875
4166		-33.203125
4167		-31.250000
4168		-35.156250
4169		-33.203125
4170		-35.156250
4171		-33.203125
4172		-37.109375
4173		-35.156250
4174		-37.109375
4175		-35.156250
4176		-39.062500
4177		-35.156250
4178		-39.062500
4179		-37.109375
4180		-39.062500
4181		-37.109375
4182		-41.015625
4183		-37.109375
4184		-39.062500
4185		-37.109375
4186		-39.062500
4187		-37.109375
4188		-39.062500
4189		-37.109375
4190		-39.062500
4191		-37.109375
4192		-39.062500
4193		-37.109375
4194		-39.062500
4195		-37.109375
4196		-37.109375
4197		-35.156250
4198		-37.109375
4199		-35.156250
4200		-37.109375
4201		-33.203125
4202		-35.156250
4203		-33.203125
4204		-35.156250
4205		-31.250000
4206		-33.203125
4207		-29.296875
4208		-31.250000
4209		-29.296875
4210		-29.296875
4211		-27.343750
4212		-29.296875
4213		-25.390625
4214		-27.343750
4215		-23.437500
4216		-25.390625
4217		-21.484375
4218		-23.437500
4219		-19.531250
4220		-21.484375
4221		-17.578125
4222		-19.531250
4223		-15.625000
4224		-17.578125
4225		-13.671875
4226		-15.625000
4227		-11.718750
4228		-13.671875
4229		-9.765625
4230		-9.765625
4231		-7.812500
4232		-7.812500
4233		-3.906250
4234		-5.859375
4235		-1.953125
4236		-3.906250
4237		0.000000
4238		-1.953125
4239		1.953125
4240		1.953125
4241		5.859375
4242		3.906250
4243		7.812500
4244		3.906250
4245		11.718750
4246		5.859375
4247		15.625000
4248		9.765625
4249		17.578125
4250		13.671875
4251		17.578125
4252		15.625000
4253		19.531250
4254		19.531250
4255		23.437500
4256		21.484375
4257		25.390625
4258		23.437500
4259		27.343750
4260		23.437500
4261		33.203125
4262		25.390625
4263		35.156250
4264		29.296875
4265		37.109375
4266		33.203125
4267		37.109375
4268		35.156250
4269		39.062500
4270		37.109375
4271		41.015625
4272		39.062500
4273		42.968750
4274		41.015625
4275		44.921875
4276		41.015625
4277		48.828125
4278		41.015625
4279		50.781250
4280		42.968750
4281		52.734375
4282		44.921875
4283		54.687500
4284		48.828125
4285		52.734375
4286		50.781250
4287		54.687500
4288		52.734375
4289		54.687500
4290		52.734375
4291		56.640625
4292		54.687500
4293		56.640625
4294		52.734375
4295		62.500000
4296		52.734375
4297		62.500000
4298		54.687500
4299		64.453125
4300		58.593750
4301		60.546875
4302		58.593750
4303		62.500000
4304		60.546875
4305		62.500000
4306		60.546875
4307		62.500000
4308		60.546875
4309		62.500000
4310		56.640625
4311		66.406250
4312		56.640625
4313		66.406250
4314		56.640625
4315		66.406250
4316		56.640625
4317		66.406250
4318		58.593750
4319		62.500000
4320		58.593750
4321		60.546875
4322		58.593750
4323		60.546875
4324		56.640625
4325		60.546875
4326		56.640625
4327		58.593750
4328		52.734375
4329		62.500000
4330		50.781250
4331		60.546875
4332		50.781250
4333		60.546875
4334		52.734375
4335		54.687500
4336		50.781250
4337		54.687500
4338		48.828125
4339		52.734375
4340		48.828125
4341		50.781250
4342		46.875000
4343		48.828125
4344		41.015625
4345		50.781250
4346		39.062500
4347		48.828125
4348		37.109375
4349		46.875000
4350		39.062500
4351		42.968750
4352		37.109375
4353		41.015625
4354		35.156250
4355		37.109375
4356		31.250000
4357		35.156250
4358		29.296875
4359		33.203125
4360		23.437500
4361		33.203125
4362		21.484375
4363		33.203125
4364		19.531250
4365		31.250000
4366		17.578125
4367		29.296875
4368		17.578125
4369		21.484375
4370		15.625000
4371		19.531250
4372		13.671875
4373		17.578125
4374		9.765625
4375		13.671875
4376		7.812500
4377		11.718750
4378		1.953125
4379		13.671875
4380		0.000000
4381		9.765625
4382		-1.953125
4383		7.812500
4384		-1.953125
4385		1.953125
4386		-3.906250
4387		0.000000
4388		-7.812500
4389		-3.906250
4390		-9.765625
4391		-5.859375
4392		-11.718750
4393		-7.812500
4394		-17.578125
4395		-7.812500
4396		-19.531250
4397		-7.812500
4398		-21.484375
4399		-11.718750
4400		-21.484375
4401		-13.671875
4402		-21.484375
4403		-19.531250
4404		-23.437500
4405		-21.484375
4406		-25.390625
4407		-23.437500
4408		-27.343750
4409		-25.390625
4410		-29.296875
4411		-25.390625
4412		-33.203125
4413		-25.390625
4414		-35.156250
4415		-25.390625
4416		-37.109375
4417		-27.343750
4418		-35.156250
4419		-31.250000
4420		-35.156250
4421		-33.203125
4422		-37.109375
4423		-35.156250
4424		-37.109375
4425		-35.156250
4426		-39.062500
4427		-35.156250
4428		-39.062500
4429		-37.109375
4430		-42.968750
4431		-35.156250
4432		-41.015625
4433		-33.203125
4434		-39.062500
4435		-37.109375
4436		-39.062500
4437		-37.109375
4438		-39.062500
4439		-37.109375
4440		-39.062500
4441		-37.109375
4442		-39.062500
4443		-37.109375
4444		-39.062500
4445		-37.109375
4446		-41.015625
4447		-33.203125
4448		-39.062500
4449		-31.250000
4450		-37.109375
4451		-33.203125
4452		-35.156250
4453		-33.203125
4454		-35.156250
4455		-31.250000
4456		-33.203125
4457		-31.250000
4458		-31.250000
4459		-29.296875
4460		-31.250000
4461		-27.343750
4462		-31.250000
4463		-25.390625
4464		-29.296875
4465		-23.437500
4466		-27.343750
4467		-21.484375
4468		-23.437500
4469		-21.484375
4470		-21.484375
4471		-17.578125
4472		-19.531250
4473		-17.578125
4474		-17.578125
4475		-15.625000
4476		-15.625000
4477		-11.718750
4478		-13.671875
4479		-9.765625
4480		-11.718750
4481		-7.812500
4482		-9.765625
4483		-5.859375
4484		-7.812500
4485		-3.906250
4486		-3.906250
4487		0.000000
4488		-1.953125
4489		1.953125
4490		0.000000
4491		3.906250
4492		1.953125
4493		5.859375
4494		5.859375
4495		9.765625
4496		7.812500
4497		11.718750
4498		9.765625
4499		13.671875
4500		13.671875
4501		15.625000
4502		15.625000
4503		19.531250
4504		17.578125
4505		21.484375
4506		19.531250
4507		23.437500
4508		21.484375
4509		27.343750
4510		25.390625
4511		29.296875
4512		27.343750
4513		31.250000
4514		29.296875
4515		33.203125
4516		31.250000
4517		35.156250
4518		33.203125
4519		37.109375
4520		35.156250
4521		39.062500
4522		39.062500
4523		41.015625
4524		41.015625
4525		42.968750
4526		42.968750
4527		44.921875
4528		42.968750
4529		48.828125
4530		44.921875
4531		48.828125
4532		46.875000
4533		50.781250
4534		48.828125
4535		52.734375
4536		48.828125
4537		54.687500
4538		50.781250
4539		54.687500
4540		52.734375
4541		56.640625
4542		54.687500
4543		56.640625
4544		54.687500
4545		58.593750
4546		54.687500
4547		58.593750
4548		56.640625
4549		60.546875
4550		56.640625
4551		60.546875
4552		58.593750
4553		62.500000
4554		58.593750
4555		62.500000
4556		60.546875
4557		62.500000
4558		60.546875
4559		62.500000
4560		60.546875
4561		62.500000
4562		58.593750
4563		62.500000
4564		58.593750
4565		62.500000
4566		60.546875
4567		62.500000
4568		58.593750
4569		62.500000
4570		58.593750
4571		62.500000
4572		58.593750
4573		60.546875
4574		56.640625
4575		60.546875
4576		56.640625
4577		60.546875
4578		56.640625
4579		58.593750
4580		54.687500
4581		58.593750
4582		54.687500
4583		56.640625
4584		52.734375
4585		54.687500
4586		50.781250
4587		54.687500
4588		48.828125
4589		52.734375
4590		48.828125
4591		50.781250
4592		46.875000
4593		48.828125
4594		44.921875
4595		48.828125
4596		41.015625
4597		48.828125
4598		41.015625
4599		44.921875
4600		39.062500
4601		42.968750
4602		37.109375
4603		41.015625
4604		35.156250
4605		39.062500
4606		33.203125
4607		37.109375
4608		31.250000
4609		35.156250
4610		29.296875
4611		33.203125
4612		23.437500
4613		29.296875
4614		23.437500
4615		27.343750
4616		21.484375
4617		25.390625
4618		19.531250
4619		23.437500
4620		15.625000
4621		21.484375
4622		13.671875
4623		17.578125
4624		11.718750
4625		15.625000
4626		7.812500
4627		11.718750
4628		5.859375
4629		9.765625
4630		3.906250
4631		7.812500
4632		0.000000
4633		5.859375
4634		-1.953125
4635		1.953125
4636		-3.906250
4637		0.000000
4638		-5.859375
4639		-1.953125
4640		-7.812500
4641		-5.859375
4642		-11.718750
4643		-7.812500
4644		-13.671875
4645		-9.765625
4646		-15.625000
4647		-11.718750
4648		-17.578125
4649		-13.671875
4650		-19.531250
4651		-15.625000
4652		-21.484375
4653		-17.578125
4654		-25.390625
4655		-19.531250
4656		-25.390625
4657		-21.484375
4658		-27.343750
4659		-23.437500
4660		-29.296875
4661		-25.390625
4662		-31.250000
4663		-27.343750
4664		-33.203125
4665		-27.343750
4666		-33.203125
4667		-29.296875
4668		-35.156250
4669		-31.250000
4670		-35.156250
4671		-33.203125
4672		-37.109375
4673		-33.203125
4674		-37.109375
4675		-35.156250
4676		-37.109375
4677		-35.156250
4678		-39.062500
4679		-37.109375
4680		-41.015625
4681		-35.156250
4682		-41.015625
4683		-37.109375
4684		-39.062500
4685		-37.109375
4686		-41.015625
4687		-37.109375
4688		-41.015625
4689		-37.109375
4690		-39.062500
4691		-37.109375
4692		-39.062500
4693		-37.109375
4694		-39.062500
4695		-37.109375
4696		-39.062500
4697		-35.156250
4698		-39.062500
4699		-35.156250
4700		-37.109375
4701		-35.156250
4702		-37.109375
4703		-33.203125
4704		-35.156250
4705		-31.250000
4706		-35.156250
4707		-31.250000
4708		-33.203125
4709		-29.296875
4710		-31.250000
4711		-29.296875
4712		-31.250000
4713		-27.343750
4714		-29.296875
4715		-25.390625
4716		-27.343750
4717		-23.437500
4718		-25.390625
4719		-21.484375
4720		-23.437500
4721		-19.531250
4722		-21.484375
4723		-17.578125
4724		-19.531250
4725		-15.625000
4726		-17.578125
4727		-13.671875
4728		-15.625000
4729		-11.718750
4730		-13.671875
4731		-9.765625
4732		-9.765625
4733		-5.859375
4734		-7.812500
4735		-3.906250
4736		-5.859375
4737		-1.953125
4738		-3.906250
4739		0.000000
4740		0.000000
4741		3.906250
4742		1.953125
4743		5.859375
4744		3.906250
4745		7.812500
4746		5.859375
4747		9.765625
4748		9.765625
4749		13.671875
4750		11.718750
4751		15.625000
4752		13.671875
4753		19.531250
4754		17.578125
4755		21.484375
4756		19.531250
4757		23.437500
4758		21.484375
4759		25.390625
4760		23.437500
4761		27.343750
4762		25.390625
4763		29.296875
4764		29.296875
4765		33.203125
4766		31.250000
4767		35.156250
4768		33.203125
4769		37.109375
4770		35.156250
4771		39.062500
4772		37.109375
4773		41.015625
4774		39.062500
4775		42.968750
4776		41.015625
4777		44.921875
4778		42.968750
4779		46.875000
4780		44.921875
4781		48.828125
4782		46.875000
4783		50.781250
4784		48.828125
4785		50.781250
4786		50.781250
4787		52.734375
4788		50.781250
4789		54.687500
4790		52.734375
4791		54.687500
4792		52.734375
4793		56.640625
4794		54.687500
4795		56.640625
4796		56.640625
4797		58.593750
4798		56.640625
4799		58.593750
4800		56.640625
4801		60.546875
4802		58.593750
4803		60.546875
4804		58.593750
4805		60.546875
4806		58.593750
4807		62.500000
4808		60.546875
4809		62.500000
4810		60.546875
4811		62.500000
4812		60.546875
4813		62.500000
4814		60.546875
4815		62.500000
4816		60.546875
4817		62.500000
4818		60.546875
4819		62.500000
4820		58.593750
4821		60.546875
4822		58.593750
4823		60.546875
4824		56.640625
4825		60.546875
4826		56.640625
4827		60.546875
4828		56.640625
4829		58.593750
4830		54.687500
4831		58.593750
4832		52.734375
4833		56.640625
4834		52.734375
4835		56.640625
4836		50.781250
4837		54.687500
4838		50.781250
4839		52.734375
4840		48.828125
4841		50.781250
4842		46.875000
4843		50.781250
4844		44.921875
4845		48.828125
4846		42.968750
4847		46.875000
4848		41.015625
4849		44.921875
4850		39.062500
4851		42.968750
4852		37.109375
4853		41.015625
4854		35.156250
4855		39.062500
4856		33.203125
4857		37.109375
4858		31.250000
4859		35.156250
4860		29.296875
4861		33.203125
4862		27.343750
4863		31.250000
4864		23.437500
4865		27.343750
4866		21.484375
4867		27.343750
4868		19.531250
4869		25.390625
4870		17.578125
4871		21.484375
4872		13.671875
4873		17.578125
4874		11.718750
4875		15.625000
4876		9.765625
4877		13.671875
4878		7.812500
4879		11.718750
4880		3.906250
4881		7.812500
4882		0.000000
4883		7.812500
4884		0.000000
4885		3.906250
4886		-1.953125
4887		1.953125
4888		-5.859375
4889		-1.953125
4890		-7.812500
4891		-3.906250
4892		-9.765625
4893		-5.859375
4894		-11.718750
4895		-7.812500
4896		-13.671875
4897		-11.718750
4898		-19.531250
4899		-13.671875
4900		-21.484375
4901		-13.671875
4902		-21.484375
4903		-17.578125
4904		-23.437500
4905		-19.531250
4906		-25.390625
4907		-21.484375
4908		-27.343750
4909		-23.437500
4910		-27.343750
4911		-25.390625
4912		-29.296875
4913		-27.343750
4914		-31.250000
4915		-29.296875
4916		-35.156250
4917		-27.343750
4918		-35.156250
4919		-29.296875
4920		-35.156250
4921		-33.203125
4922		-37.109375
4923		-33.203125
4924		-37.109375
4925		-35.156250
4926		-37.109375
4927		-35.156250
4928		-39.062500
4929		-37.109375
4930		-39.062500
4931		-37.109375
4932		-41.015625
4933		-35.156250
4934		-41.015625
4935		-35.156250
4936		-41.015625
4937		-37.109375
4938		-39.062500
4939		-37.109375
4940		-41.015625
4941		-37.109375
4942		-39.062500
4943		-37.109375
4944		-39.062500
4945		-37.109375
4946		-39.062500
4947		-37.109375
4948		-39.062500
4949		-35.156250
4950		-39.062500
4951		-33.203125
4952		-39.062500
4953		-33.203125
4954		-35.156250
4955		-33.203125
4956		-35.156250
4957		-31.250000
4958		-33.203125
4959		-29.296875
4960		-33.203125
4961		-29.296875
4962		-31.250000
4963		-27.343750
4964		-29.296875
4965		-25.390625
4966		-29.296875
4967		-21.484375
4968		-27.343750
4969		-21.484375
4970		-23.437500
4971		-19.531250
4972		-21.484375
4973		-19.531250
4974		-19.531250
4975		-15.625000
4976		-17.578125
4977		-13.671875
4978		-15.625000
4979		-11.718750
4980		-13.671875
4981		-9.765625
4982		-11.718750
4983		-5.859375
4984		-9.765625
4985		-3.906250
4986		-7.812500
4987		-1.953125
4988		-3.906250
4989		0.000000
4990		-1.953125
4991		1.953125
4992		0.000000
4993		5.859375
4994		3.906250
4995		7.812500
4996		5.859375
4997		9.765625
4998		7.812500
4999		11.718750
5000		9.765625
5001		15.625000
5002		11.718750
5003		17.578125
5004		15.625000
5005		19.531250
5006		17.578125
5007		21.484375
5008		21.484375
5009		25.390625
5010		23.437500
5011		27.343750
5012		25.390625
5013		29.296875
5014		27.343750
5015		31.250000
5016		29.296875
5017		35.156250
5018		31.250000
5019		37.109375
5020		35.156250
5021		39.062500
5022		37.109375
5023		41.015625
5024		39.062500
5025		42.968750
5026		41.015625
5027		44.921875
5028		42.968750
5029		46.875000
5030		44.921875
5031		46.875000
5032		46.875000
5033		50.781250
5034		46.875000
5035		52.734375
5036		46.875000
5037		52.734375
5038		50.781250
5039		54.687500
5040		52.734375
5041		54.687500
5042		52.734375
5043		56.640625
5044		54.687500
5045		56.640625
5046		54.687500
5047		58.593750
5048		56.640625
5049		58.593750
5050		56.640625
5051		60.546875
5052		58.593750
5053		60.546875
5054		58.593750
5055		60.546875
5056		58.593750
5057		62.500000
5058		58.593750
5059		62.500000
5060		60.546875
5061		62.500000
5062		60.546875
5063		62.500000
5064		60.546875
5065		62.500000
5066		58.593750
5067		62.500000
5068		60.546875
5069		62.500000
5070		58.593750
5071		62.500000
5072		58.593750
5073		60.546875
5074		58.593750
5075		60.546875
5076		56.640625
5077		60.546875
5078		56.640625
5079		58.593750
5080		54.687500
5081		58.593750
5082		54.687500
5083		56.640625
5084		52.734375
5085		58.593750
5086		52.734375
5087		54.687500
5088		50.781250
5089		54.687500
5090		48.828125
5091		52.734375
5092		48.828125
5093		50.781250
5094		46.875000
5095		48.828125
5096		44.921875
5097		46.875000
5098		42.968750
5099		46.875000
5100		41.015625
5101		44.921875
5102		39.062500
5103		42.968750
5104		37.109375
5105		41.015625
5106		35.156250
5107		37.109375
5108		33.203125
5109		35.156250
5110		31.250000
5111		33.203125
5112		27.343750
5113		31.250000
5114		25.390625
5115		29.296875
5116		23.437500
5117		27.343750
5118		21.484375
5119		25.390625
5120		17.578125
5121		21.484375
5122		15.625000
5123		19.531250
5124		11.718750
5125		17.578125
5126		9.765625
5127		13.671875
5128		7.812500
5129		11.718750
5130		5.859375
5131		9.765625
5132		1.953125
5133		7.812500
5134		0.000000
5135		3.906250
5136		-1.953125
5137		1.953125
5138		-3.906250
5139		0.000000
5140		-5.859375
5141		-3.906250
5142		-9.765625
5143		-5.859375
5144		-11.718750
5145		-7.812500
5146		-13.671875
5147		-9.765625
5148		-15.625000
5149		-11.718750
5150		-17.578125
5151		-13.671875
5152		-19.531250
5153		-17.578125
5154		-21.484375
5155		-19.531250
5156		-23.437500
5157		-21.484375
5158		-25.390625
5159		-23.437500
5160		-27.343750
5161		-25.390625
5162		-29.296875
5163		-25.390625
5164		-31.250000
5165		-27.343750
5166		-31.250000
5167		-29.296875
5168		-33.203125
5169		-31.250000
5170		-35.156250
5171		-31.250000
5172		-35.156250
5173		-33.203125
5174		-37.109375
5175		-33.203125
5176		-37.109375
5177		-35.156250
5178		-37.109375
5179		-35.156250
5180		-39.062500
5181		-37.109375
5182		-39.062500
5183		-37.109375
5184		-41.015625
5185		-37.109375
5186		-39.062500
5187		-37.109375
5188		-39.062500
5189		-37.109375
5190		-41.015625
5191		-37.109375
5192		-39.062500
5193		-37.109375
5194		-39.062500
5195		-37.109375
5196		-39.062500
5197		-37.109375
5198		-39.062500
5199		-35.156250
5200		-37.109375
5201		-35.156250
5202		-37.109375
5203		-33.203125
5204		-37.109375
5205		-33.203125
5206		-35.156250
5207		-31.250000
5208		-33.203125
5209		-31.250000
5210		-33.203125
5211		-29.296875
5212		-31.250000
5213		-27.343750
5214		-29.296875
5215		-27.343750
5216		-27.343750
5217		-25.390625
5218		-25.390625
5219		-23.437500
5220		-25.390625
5221		-21.484375
5222		-23.437500
5223		-19.531250
5224		-21.484375
5225		-17.578125
5226		-19.531250
5227		-15.625000
5228		-15.625000
5229		-13.671875
5230		-13.671875
5231		-11.718750
5232		-11.718750
5233		-7.812500
5234		-9.765625
5235		-5.859375
5236		-7.812500
5237		-3.906250
5238		-5.859375
5239		-1.953125
5240		-1.953125
5241		1.953125
5242		0.000000
5243		3.906250
5244		1.953125
5245		5.859375
5246		3.906250
5247		7.812500
5248		7.812500
5249		11.718750
5250		9.765625
5251		13.671875
5252		11.718750
5253		15.625000
5254		15.625000
5255		19.531250
5256		17.578125
5257		21.484375
5258		19.531250
5259		23.437500
5260		21.484375
5261		25.390625
5262		25.390625
5263		29.296875
5264		27.343750
5265		31.250000
5266		29.296875
5267		33.203125
5268		31.250000
5269		35.156250
5270		33.203125
5271		37.109375
5272		35.156250
5273		39.062500
5274		37.109375
5275		41.015625
5276		39.062500
5277		42.968750
5278		41.015625
5279		44.921875
5280		42.968750
5281		46.875000
5282		44.921875
5283		48.828125
5284		46.875000
5285		50.781250
5286		48.828125
5287		50.781250
5288		50.781250
5289		52.734375
5290		50.781250
5291		54.687500
5292		52.734375
5293		54.687500
5294		54.687500
5295		56.640625
5296		54.687500
5297		58.593750
5298		56.640625
5299		58.593750
5300		56.640625
5301		58.593750
5302		58.593750
5303		60.546875
5304		58.593750
5305		60.546875
5306		58.593750
5307		60.546875
5308		58.593750
5309		62.500000
5310		58.593750
5311		62.500000
5312		60.546875
5313		62.500000
5314		60.546875
5315		62.500000
5316		60.546875
5317		62.500000
5318		60.546875
5319		62.500000
5320		60.546875
5321		62.500000
5322		58.593750
5323		62.500000
5324		58.593750
5325		60.546875
5326		58.593750
5327		60.546875
5328		56.640625
5329		58.593750
5330		56.640625
5331		58.593750
5332		54.687500
5333		58.593750
5334		54.687500
5335		56.640625
5336		52.734375
5337		54.687500
5338		50.781250
5339		54.687500
5340		50.781250
5341		52.734375
5342		48.828125
5343		50.781250
5344		46.875000
5345		50.781250
5346		44.921875
5347		48.828125
5348		42.968750
5349		46.875000
5350		41.015625
5351		44.921875
5352		39.062500
5353		42.968750
5354		37.109375
5355		41.015625
5356		35.156250
5357		39.062500
5358		33.203125
5359		37.109375
5360		31.250000
5361		35.156250
5362		29.296875
5363		33.203125
5364		25.390625
5365		29.296875
5366		23.437500
5367		27.343750
5368		21.484375
5369		25.390625
5370		19.531250
5371		23.437500
5372		15.625000
5373		19.531250
5374		13.671875
5375		17.578125
5376		11.718750
5377		15.625000
5378		7.812500
5379		13.671875
5380		5.859375
5381		9.765625
5382		3.906250
5383		7.812500
5384		1.953125
5385		5.859375
5386		-1.953125
5387		1.953125
5388		-3.906250
5389		0.000000
5390		-5.859375
5391		-1.953125
5392		-7.812500
5393		-3.906250
5394		-11.718750
5395		-7.812500
5396		-13.671875
5397		-9.765625
5398		-15.625000
5399		-11.718750
5400		-17.578125
5401		-13.671875
5402		-19.531250
5403		-15.625000
5404		-21.484375
5405		-17.578125
5406		-23.437500
5407		-19.531250
5408		-25.390625
5409		-21.484375
5410		-27.343750
5411		-23.437500
5412		-29.296875
5413		-25.390625
5414		-29.296875
5415		-27.343750
5416		-31.250000
5417		-29.296875
5418		-33.203125
5419		-29.296875
5420		-33.203125
5421		-31.250000
5422		-35.156250
5423		-33.203125
5424		-37.109375
5425		-33.203125
5426		-37.109375
5427		-35.156250
5428		-39.062500
5429		-35.156250
5430		-39.062500
5431		-35.156250
5432		-39.062500
5433		-37.109375
5434		-39.062500
5435		-37.109375
5436		-39.062500
5437		-37.109375
5438		-41.015625
5439		-37.109375
5440		-41.015625
5441		-37.109375
5442		-39.062500
5443		-37.109375
5444		-39.062500
5445		-37.109375
5446		-39.062500
5447		-37.109375
5448		-39.062500
5449		-37.109375
5450		-37.109375
5451		-35.156250
5452		-37.109375
5453		-35.156250
5454		-37.109375
5455		-33.203125
5456		-35.156250
5457		-33.203125
5458		-35.156250
5459		-31.250000
5460		-33.203125
5461		-29.296875
5462		-31.250000
5463		-29.296875
5464		-31.250000
5465		-27.343750
5466		-29.296875
5467		-25.390625
5468		-27.343750
5469		-23.437500
5470		-25.390625
5471		-21.484375
5472		-23.437500
5473		-19.531250
5474		-21.484375
5475		-17.578125
5476		-19.531250
5477		-15.625000
5478		-17.578125
5479		-13.671875
5480		-15.625000
5481		-11.718750
5482		-13.671875
5483		-9.765625
5484		-11.718750
5485		-5.859375
5486		-7.812500
5487		-3.906250
5488		-5.859375
5489		-1.953125
5490		-3.906250
5491		0.000000
5492		-1.953125
5493		1.953125
5494		1.953125
5495		5.859375
5496		3.906250
5497		7.812500
5498		5.859375
5499		9.765625
5500		7.812500
5501		11.718750
5502		11.718750
5503		15.625000
5504		13.671875
5505		17.578125
5506		15.625000
5507		19.531250
5508		19.531250
5509		23.437500
5510		21.484375
5511		25.390625
5512		23.437500
5513		27.343750
5514		25.390625
5515		29.296875
5516		29.296875
5517		31.250000
5518		29.296875
5519		33.203125
5520		33.203125
5521		37.109375
5522		35.156250
5523		39.062500
5524		37.109375
5525		41.015625
5526		39.062500
5527		42.968750
5528		41.015625
5529		44.921875
5530		42.968750
5531		46.875000
5532		44.921875
5533		46.875000
5534		46.875000
5535		48.828125
5536		48.828125
5537		50.781250
5538		48.828125
5539		52.734375
5540		50.781250
5541		54.687500
5542		52.734375
5543		54.687500
5544		52.734375
5545		56.640625
5546		54.687500
5547		56.640625
5548		56.640625
5549		58.593750
5550		56.640625
5551		58.593750
5552		56.640625
5553		60.546875
5554		58.593750
5555		60.546875
5556		58.593750
5557		60.546875
5558		58.593750
5559		62.500000
5560		58.593750
5561		62.500000
5562		60.546875
5563		62.500000
5564		60.546875
5565		62.500000
5566		60.546875
5567		62.500000
5568		60.546875
5569		62.500000
5570		58.593750
5571		62.500000
5572		58.593750
5573		60.546875
5574		58.593750
5575		60.546875
5576		58.593750
5577		60.546875
5578		56.640625
5579		58.593750
5580		56.640625
5581		58.593750
5582		54.687500
5583		58.593750
5584		54.687500
5585		56.640625
5586		52.734375
5587		56.640625
5588		50.781250
5589		54.687500
5590		50.781250
5591		52.734375
5592		48.828125
5593		52.734375
5594		46.875000
5595		50.781250
5596		44.921875
5597		48.828125
5598		42.968750
5599		46.875000
5600		41.015625
5601		44.921875
5602		39.062500
5603		42.968750
5604		37.109375
5605		41.015625
5606		35.156250
5607		39.062500
5608		33.203125
5609		37.109375
5610		31.250000
5611		35.156250
5612		29.296875
5613		33.203125
5614		27.343750
5615		31.250000
5616		23.437500
5617		27.343750
5618		21.484375
5619		25.390625
5620		19.531250
5621		23.437500
5622		17.578125
5623		21.484375
5624		13.671875
5625		17.578125
5626		11.718750
5627		15.625000
5628		9.765625
5629		13.671875
5630		5.859375
5631		11.718750
5632		3.906250
5633		7.812500
5634		1.953125
5635		5.859375
5636		0.000000
5637		3.906250
5638		-1.953125
5639		0.000000
5640		-5.859375
5641		-1.953125
5642		-7.812500
5643		-3.906250
5644		-9.765625
5645		-5.859375
5646		-11.718750
5647		-7.812500
5648		-15.625000
5649		-11.718750
5650		-17.578125
5651		-13.671875
5652		-19.531250
5653		-15.625000
5654		-21.484375
5655		-17.578125
5656		-23.437500
5657		-19.531250
5658		-25.390625
5659		-21.484375
5660		-27.343750
5661		-23.437500
5662		-29.296875
5663		-25.390625
5664		-29.296875
5665		-27.343750
5666		-31.250000
5667		-29.296875
5668		-33.203125
5669		-29.296875
5670		-35.156250
5671		-31.250000
5672		-35.156250
5673		-33.203125
5674		-37.109375
5675		-33.203125
5676		-37.109375
5677		-35.156250
5678		-39.062500
5679		-35.156250
5680		-39.062500
5681		-37.109375
5682		-39.062500
5683		-37.109375
5684		-39.062500
5685		-37.109375
5686		-41.015625
5687		-37.109375
5688		-41.015625
5689		-37.109375
5690		-41.015625
5691		-39.062500
5692		-41.015625
5693		-37.109375
5694		-41.015625
5695		-37.109375
5696		-39.062500
5697		-37.109375
5698		-39.062500
5699		-37.109375
5700		-39.062500
5701		-37.109375
5702		-37.109375
5703		-35.156250
5704		-37.109375
5705		-35.156250
5706		-35.156250
5707		-33.203125
5708		-35.156250
5709		-31.250000
5710		-33.203125
5711		-31.250000
5712		-33.203125
5713		-29.296875
5714		-31.250000
5715		-27.343750
5716		-29.296875
5717		-27.343750
5718		-27.343750
5719		-25.390625
5720		-25.390625
5721		-23.437500
5722		-25.390625
5723		-21.484375
5724		-23.437500
5725		-19.531250
5726		-19.531250
5727		-17.578125
5728		-19.531250
5729		-15.625000
5730		-15.625000
5731		-13.671875
5732		-13.671875
5733		-9.765625
5734		-11.718750
5735		-7.812500
5736		-9.765625
5737		-5.859375
5738		-7.812500
5739		-3.906250
5740		-3.906250
5741		-1.953125
5742		-1.953125
5743		1.953125
5744		0.000000
5745		3.906250
5746		1.953125
5747		5.859375
5748		5.859375
5749		9.765625
5750		7.812500
5751		11.718750
5752		9.765625
5753		13.671875
5754		11.718750
5755		17.578125
5756		15.625000
5757		19.531250
5758		17.578125
5759		21.484375
5760		19.531250
5761		23.437500
5762		21.484375
5763		25.390625
5764		25.390625
5765		29.296875
5766		27.343750
5767		31.250000
5768		29.296875
5769		33.203125
5770		31.250000
5771		35.156250
5772		33.203125
5773		37.109375
5774		35.156250
5775		39.062500
5776		39.062500
5777		41.015625
5778		41.015625
5779		42.968750
5780		41.015625
5781		44.921875
5782		42.968750
5783		46.875000
5784		44.921875
5785		48.828125
5786		46.875000
5787		50.781250
5788		48.828125
5789		52.734375
5790		50.781250
5791		52.734375
5792		50.781250
5793		54.687500
5794		52.734375
5795		56.640625
5796		54.687500
5797		56.640625
5798		54.687500
5799		58.593750
5800		56.640625
5801		58.593750
5802		56.640625
5803		60.546875
5804		56.640625
5805		60.546875
5806		58.593750
5807		60.546875
5808		58.593750
5809		60.546875
5810		58.593750
5811		62.500000
5812		60.546875
5813		62.500000
5814		60.546875
5815		62.500000
5816		60.546875
5817		62.500000
5818		60.546875
5819		62.500000
5820		58.593750
5821		62.500000
5822		58.593750
5823		60.546875
5824		58.593750
5825		60.546875
5826		58.593750
5827		60.546875
5828		56.640625
5829		60.546875
5830		56.640625
5831		58.593750
5832		54.687500
5833		58.593750
5834		54.687500
5835		56.640625
5836		52.734375
5837		56.640625
5838		52.734375
5839		54.687500
5840		50.781250
5841		52.734375
5842		48.828125
5843		52.734375
5844		46.875000
5845		50.781250
5846		46.875000
5847		48.828125
5848		44.921875
5849		46.875000
5850		42.968750
5851		44.921875
5852		41.015625
5853		42.968750
5854		39.062500
5855		41.015625
5856		37.109375
5857		39.062500
5858		35.156250
5859		37.109375
5860		31.250000
5861		35.156250
5862		29.296875
5863		33.203125
5864		27.343750
5865		31.250000
5866		25.390625
5867		29.296875
5868		23.437500
5869		27.343750
5870		19.531250
5871		23.437500
5872		17.578125
5873		21.484375
5874		15.625000
5875		19.531250
5876		13.671875
5877		17.578125
5878		9.765625
5879		13.671875
5880		7.812500
5881		11.718750
5882		5.859375
5883		9.765625
5884		1.953125
5885		7.812500
5886		0.000000
5887		3.906250
5888		-1.953125
5889		1.953125
5890		-3.906250
5891		0.000000
5892		-7.812500
5893		-3.906250
5894		-9.765625
5895		-5.859375
5896		-11.718750
5897		-7.812500
5898		-15.625000
5899		-9.765625
5900		-15.625000
5901		-11.718750
5902		-17.578125
5903		-15.625000
5904		-21.484375
5905		-15.625000
5906		-23.437500
5907		-19.531250
5908		-25.390625
5909		-21.484375
5910		-25.390625
5911		-23.437500
5912		-29.296875
5913		-23.437500
5914		-29.296875
5915		-27.343750
5916		-31.250000
5917		-27.343750
5918		-33.203125
5919		-29.296875
5920		-35.156250
5921		-29.296875
5922		-35.156250
5923		-33.203125
5924		-37.109375
5925		-33.203125
5926		-37.109375
5927		-35.156250
5928		-39.062500
5929		-33.203125
5930		-39.062500
5931		-35.156250
5932		-41.015625
5933		-35.156250
5934		-39.062500
5935		-37.109375
5936		-42.968750
5937		-35.156250
5938		-41.015625
5939		-39.062500
5940		-41.015625
5941		-39.062500
5942		-42.968750
5943		-35.156250
5944		-41.015625
5945		-35.156250
5946		-41.015625
5947		-37.109375
5948		-39.062500
5949		-37.109375
5950		-41.015625
5951		-35.156250
5952		-41.015625
5953		-33.203125
5954		-37.109375
5955		-35.156250
5956		-37.109375
5957		-33.203125
5958		-37.109375
5959		-31.250000
5960		-37.109375
5961		-29.296875
5962		-33.203125
5963		-29.296875
5964		-31.250000
5965		-27.343750
5966		-31.250000
5967		-25.390625
5968		-29.296875
5969		-25.390625
5970		-27.343750
5971		-21.484375
5972		-25.390625
5973		-21.484375
5974		-23.437500
5975		-19.531250
5976		-23.437500
5977		-13.671875
5978		-21.484375
5979		-15.625000
5980		-17.578125
5981		-13.671875
5982		-15.625000
5983		-9.765625
5984		-15.625000
5985		-7.812500
5986		-13.671875
5987		-3.906250
5988		-7.812500
5989		-3.906250
5990		-5.859375
5991		-1.953125
5992		-3.906250
5993		1.953125
5994		-1.953125
5995		5.859375
5996		0.000000
5997		5.859375
5998		3.906250
5999		7.812500
6000		3.906250
6001		13.671875
6002		9.765625
6003		13.671875
6004		7.812500
6005		15.625000
6006		13.671875
6007		17.578125
6008		15.625000
6009		21.484375
6010		17.578125
6011		25.390625
6012		19.531250
6013		27.343750
6014		23.437500
6015		27.343750
6016		25.390625
6017		33.203125
6018		25.390625
6019		35.156250
6020		27.343750
6021		37.109375
6022		33.203125
6023		37.109375
6024		35.156250
6025		39.062500
6026		35.156250
6027		42.968750
6028		35.156250
6029		44.921875
6030		41.015625
6031		44.921875
6032		42.968750
6033		46.875000
6034		42.968750
6035		50.781250
6036		44.921875
6037		52.734375
6038		48.828125
6039		50.781250
6040		48.828125
6041		52.734375
6042		50.781250
6043		54.687500
6044		48.828125
6045		58.593750
6046		50.781250
6047		56.640625
6048		54.687500
6049		56.640625
6050		52.734375
6051		62.500000
6052		52.734375
6053		62.500000
6054		54.687500
6055		62.500000
6056		56.640625
6057		60.546875
6058		58.593750
6059		62.500000
6060		56.640625
6061		64.453125
6062		56.640625
6063		64.453125
6064		58.593750
6065		60.546875
6066		56.640625
6067		62.500000
6068		56.640625
6069		66.406250
6070		54.687500
6071		64.453125
6072		58.593750
6073		62.500000
6074		58.593750
6075		60.546875
6076		56.640625
6077		60.546875
6078		52.734375
6079		62.500000
6080		54.687500
6081		60.546875
6082		54.687500
6083		58.593750
6084		50.781250
6085		60.546875
6086		52.734375
6087		56.640625
6088		50.781250
6089		58.593750
6090		50.781250
6091		52.734375
6092		46.875000
6093		52.734375
6094		44.921875
6095		52.734375
6096		44.921875
6097		50.781250
6098		44.921875
6099		46.875000
6100		41.015625
6101		46.875000
6102		37.109375
6103		46.875000
6104		37.109375
6105		44.921875
6106		37.109375
6107		41.015625
6108		35.156250
6109		39.062500
6110		31.250000
6111		37.109375
6112		27.343750
6113		37.109375
6114		27.343750
6115		31.250000
6116		23.437500
6117		29.296875
6118		21.484375
6119		29.296875
6120		17.578125
6121		25.390625
6122		17.578125
6123		21.484375
6124		15.625000
6125		19.531250
6126		11.718750
6127		17.578125
6128		9.765625
6129		17.578125
6130		7.812500
6131		13.671875
6132		5.859375
6133		9.765625
6134		0.000000
6135		7.812500
6136		0.000000
6137		7.812500
6138		-3.906250
6139		3.906250
6140		-3.906250
6141		0.000000
6142		-7.812500
6143		-1.953125
6144		-9.765625
6145		-3.906250
6146		-13.671875
6147		-5.859375
6148		-13.671875
6149		-7.812500
6150		-15.625000
6151		-11.718750
6152		-19.531250
6153		-11.718750
6154		-23.437500
6155		-13.671875
6156		-21.484375
6157		-19.531250
6158		-23.437500
6159		-21.484375
6160		-27.343750
6161		-21.484375
6162		-29.296875
6163		-21.484375
6164		-29.296875
6165		-23.437500
6166		-31.250000
6167		-27.343750
6168		-33.203125
6169		-29.296875
6170		-33.203125
6171		-31.250000
6172		-37.109375
6173		-29.296875
6174		-37.109375
6175		-33.203125
6176		-37.109375
6177		-35.156250
6178		-41.015625
6179		-33.203125
6180		-41.015625
6181		-35.156250
6182		-39.062500
6183		-37.109375
6184		-41.015625
6185		-37.109375
6186		-41.015625
6187		-39.062500
6188		-41.015625
6189		-39.062500
6190		-41.015625
6191		-39.062500
6192		-41.015625
6193		-39.062500
6194		-41.015625
6195		-39.062500
6196		-42.968750
6197		-37.109375
6198		-41.015625
6199		-37.109375
6200		-39.062500
6201		-35.156250
6202		-41.015625
6203		-35.156250
6204		-39.062500
6205		-35.156250
6206		-37.109375
6207		-35.156250
6208		-37.109375
6209		-33.203125
6210		-35.156250
6211		-31.250000
6212		-33.203125
6213		-31.250000
6214		-33.203125
6215		-29.296875
6216		-31.250000
6217		-29.296875
6218		-29.296875
6219		-27.343750
6220		-27.343750
6221		-25.390625
6222		-27.343750
6223		-23.437500
6224		-25.390625
6225		-21.484375
6226		-23.437500
6227		-17.578125
6228		-21.484375
6229		-17.578125
6230		-17.578125
6231		-15.625000
6232		-15.625000
6233		-11.718750
6234		-13.671875
6235		-9.765625
6236		-11.718750
6237		-7.812500
6238		-9.765625
6239		-5.859375
6240		-7.812500
6241		-3.906250
6242		-3.906250
6243		0.000000
6244		-1.953125
6245		1.953125
6246		-1.953125
6247		5.859375
6248		1.953125
6249		7.812500
6250		3.906250
6251		9.765625
6252		5.859375
6253		11.718750
6254		9.765625
6255		15.625000
6256		11.718750
6257		17.578125
6258		15.625000
6259		19.531250
6260		17.578125
6261		23.437500
6262		19.531250
6263		25.390625
6264		21.484375
6265		27.343750
6266		23.437500
6267		31.250000
6268		27.343750
6269		33.203125
6270		27.343750
6271		35.156250
6272		31.250000
6273		37.109375
6274		33.203125
6275		37.109375
6276		35.156250
6277		39.062500
6278		37.109375
6279		42.968750
6280		39.062500
6281		44.921875
6282		41.015625
6283		46.875000
6284		42.968750
6285		48.828125
6286		44.921875
6287		50.781250
6288		46.875000
6289		50.781250
6290		46.875000
6291		52.734375
6292		50.781250
6293		52.734375
6294		50.781250
6295		54.687500
6296		50.781250
6297		56.640625
6298		52.734375
6299		58.593750
6300		52.734375
6301		58.593750
6302		54.687500
6303		58.593750
6304		54.687500
6305		60.546875
6306		56.640625
6307		60.546875
6308		58.593750
6309		60.546875
6310		56.640625
6311		60.546875
6312		56.640625
6313		62.500000
6314		58.593750
6315		62.500000
6316		56.640625
6317		62.500000
6318		58.593750
6319		62.500000
6320		58.593750
6321		62.500000
6322		56.640625
6323		62.500000
6324		58.593750
6325		60.546875
6326		58.593750
6327		60.546875
6328		56.640625
6329		60.546875
6330		56.640625
6331		60.546875
6332		54.687500
6333		58.593750
6334		52.734375
6335		58.593750
6336		52.734375
6337		56.640625
6338		50.781250
6339		54.687500
6340		50.781250
6341		54.687500
6342		48.828125
6343		52.734375
6344		46.875000
6345		50.781250
6346		44.921875
6347		50.781250
6348		42.968750
6349		48.828125
6350		41.015625
6351		46.875000
6352		41.015625
6353		46.875000
6354		39.062500
6355		42.968750
6356		37.109375
6357		41.015625
6358		35.156250
6359		39.062500
6360		33.203125
6361		37.109375
6362		31.250000
6363		35.156250
6364		27.343750
6365		33.203125
6366		25.390625
6367		31.250000
6368		23.437500
6369		29.296875
6370		21.484375
6371		25.390625
6372		19.531250
6373		23.437500
6374		15.625000
6375		21.484375
6376		13.671875
6377		17.578125
6378		9.765625
6379		15.625000
6380		7.812500
6381		13.671875
6382		5.859375
6383		9.765625
6384		1.953125
6385		9.765625
6386		1.953125
6387		5.859375
6388		-1.953125
6389		1.953125
6390		-3.906250
6391		0.000000
6392		-5.859375
6393		-1.953125
6394		-9.765625
6395		-3.906250
6396		-11.718750
6397		-5.859375
6398		-13.671875
6399		-9.765625
6400		-17.578125
6401		-11.718750
6402		-17.578125
6403		-13.671875
6404		-19.531250
6405		-15.625000
6406		-23.437500
6407		-17.578125
6408		-23.437500
6409		-19.531250
6410		-25.390625
6411		-21.484375
6412		-27.343750
6413		-23.437500
6414		-29.296875
6415		-25.390625
6416		-31.250000
6417		-27.343750
6418		-33.203125
6419		-27.343750
6420		-35.156250
6421		-31.250000
6422		-35.156250
6423		-31.250000
6424		-37.109375
6425		-33.203125
6426		-37.109375
6427		-35.156250
6428		-39.062500
6429		-35.156250
6430		-39.062500
6431		-35.156250
6432		-41.015625
6433		-37.109375
6434		-41.015625
6435		-37.109375
6436		-41.015625
6437		-39.062500
6438		-41.015625
6439		-37.109375
6440		-42.968750
6441		-39.062500
6442		-41.015625
6443		-39.062500
6444		-41.015625
6445		-39.062500
6446		-41.015625
6447		-37.109375
6448		-41.015625
6449		-37.109375
6450		-41.015625
6451		-37.109375
6452		-41.015625
6453		-35.156250
6454		-39.062500
6455		-35.156250
6456		-39.062500
6457		-35.156250
6458		-37.109375
6459		-35.156250
6460		-35.156250
6461		-33.203125
6462		-35.156250
6463		-31.250000
6464		-33.203125
6465		-31.250000
6466		-33.203125
6467		-27.343750
6468		-31.250000
6469		-27.343750
6470		-29.296875
6471		-25.390625
6472		-27.343750
6473		-23.437500
6474		-25.390625
6475		-21.484375
6476		-23.437500
6477		-19.531250
6478		-21.484375
6479		-17.578125
6480		-19.531250
6481		-15.625000
6482		-17.578125
6483		-13.671875
6484		-15.625000
6485		-9.765625
6486		-13.671875
6487		-9.765625
6488		-11.718750
6489		-5.859375
6490		-7.812500
6491		-3.906250
6492		-5.859375
6493		-1.953125
6494		-3.906250
6495		0.000000
6496		-1.953125
6497		1.953125
6498		0.000000
6499		5.859375
6500		3.906250
6501		7.812500
6502		5.859375
6503		9.765625
6504		7.812500
6505		13.671875
6506		11.718750
6507		15.625000
6508		13.671875
6509		17.578125
6510		15.625000
6511		21.484375
6512		19.531250
6513		23.437500
6514		21.484375
6515		25.390625
6516		23.437500
6517		27.343750
6518		25.390625
6519		29.296875
6520		27.343750
6521		33.203125
6522		31.250000
6523		35.156250
6524		31.250000
6525		37.109375
6526		35.156250
6527		39.062500
6528		37.109375
6529		41.015625
6530		37.109375
6531		42.968750
6532		41.015625
6533		44.921875
6534		42.968750
6535		46.875000
6536		44.921875
6537		48.828125
6538		46.875000
6539		48.828125
6540		46.875000
6541		50.781250
6542		48.828125
6543		52.734375
6544		50.781250
6545		54.687500
6546		50.781250
6547		54.687500
6548		52.734375
6549		56.640625
6550		54.687500
6551		56.640625
6552		54.687500
6553		58.593750
6554		56.640625
6555		58.593750
6556		56.640625
6557		60.546875
6558		56.640625
6559		60.546875
6560		58.593750
6561		60.546875
6562		58.593750
6563		60.546875
6564		58.593750
6565		60.546875
6566		58.593750
6567		60.546875
6568		58.593750
6569		62.500000
6570		58.593750
6571		60.546875
6572		58.593750
6573		60.546875
6574		56.640625
6575		60.546875
6576		56.640625
6577		60.546875
6578		56.640625
6579		58.593750
6580		54.687500
6581		60.546875
6582		54.687500
6583		58.593750
6584		54.687500
6585		56.640625
6586		52.734375
6587		56.640625
6588		52.734375
6589		56.640625
6590		50.781250
6591		54.687500
6592		48.828125
6593		52.734375
6594		48.828125
6595		50.781250
6596		44.921875
6597		50.781250
6598		44.921875
6599		48.828125
6600		42.968750
6601		46.875000
6602		41.015625
6603		44.921875
6604		39.062500
6605		42.968750
6606		37.109375
6607		41.015625
6608		35.156250
6609		39.062500
6610		33.203125
6611		37.109375
6612		31.250000
6613		35.156250
6614		29.296875
6615		33.203125
6616		25.390625
6617		31.250000
6618		23.437500
6619		29.296875
6620		21.484375
6621		25.390625
6622		19.531250
6623		23.437500
6624		15.625000
6625		21.484375
6626		13.671875
6627		19.531250
6628		11.718750
6629		15.625000
6630		9.765625
6631		13.671875
6632		7.812500
6633		11.718750
6634		3.906250
6635		9.765625
6636		1.953125
6637		5.859375
6638		0.000000
6639		3.906250
6640		-3.906250
6641		1.953125
6642		-5.859375
6643		-1.953125
6644		-7.812500
6645		-3.906250
6646		-9.765625
6647		-5.859375
6648		-11.718750
6649		-7.812500
6650		-15.625000
6651		-9.765625
6652		-17.578125
6653		-13.671875
6654		-19.531250
6655		-15.625000
6656		-21.484375
6657		-17.578125
6658		-23.437500
6659		-19.531250
6660		-25.390625
6661		-21.484375
6662		-27.343750
6663		-23.437500
6664		-29.296875
6665		-25.390625
6666		-31.250000
6667		-27.343750
6668		-33.203125
6669		-29.296875
6670		-33.203125
6671		-29.296875
6672		-35.156250
6673		-31.250000
6674		-37.109375
6675		-33.203125
6676		-37.109375
6677		-33.203125
6678		-37.109375
6679		-35.156250
6680		-41.015625
6681		-35.156250
6682		-39.062500
6683		-37.109375
6684		-41.015625
6685		-37.109375
6686		-41.015625
6687		-37.109375
6688		-42.968750
6689		-39.062500
6690		-41.015625
6691		-39.062500
6692		-42.968750
6693		-39.062500
6694		-41.015625
6695		-39.062500
6696		-41.015625
6697		-39.062500
6698		-41.015625
6699		-37.109375
6700		-41.015625
6701		-37.109375
6702		-41.015625
6703		-37.109375
6704		-39.062500
6705		-37.109375
6706		-39.062500
6707		-35.156250
6708		-39.062500
6709		-35.156250
6710		-37.109375
6711		-33.203125
6712		-35.156250
6713		-33.203125
6714		-35.156250
6715		-31.250000
6716		-33.203125
6717		-29.296875
6718		-31.250000
6719		-27.343750
6720		-29.296875
6721		-27.343750
6722		-29.296875
6723		-23.437500
6724		-27.343750
6725		-23.437500
6726		-25.390625
6727		-19.531250
6728		-21.484375
6729		-19.531250
6730		-19.531250
6731		-17.578125
6732		-19.531250
6733		-15.625000
6734		-17.578125
6735		-11.718750
6736		-13.671875
6737		-9.765625
6738		-11.718750
6739		-7.812500
6740		-9.765625
6741		-5.859375
6742		-7.812500
6743		-1.953125
6744		-5.859375
6745		0.000000
6746		-1.953125
6747		1.953125
6748		0.000000
6749		3.906250
6750		1.953125
6751		7.812500
6752		5.859375
6753		9.765625
6754		7.812500
6755		11.718750
6756		9.765625
6757		13.671875
6758		11.718750
6759		17.578125
6760		15.625000
6761		19.531250
6762		17.578125
6763		21.484375
6764		19.531250
6765		25.390625
6766		23.437500
6767		27.343750
6768		25.390625
6769		29.296875
6770		27.343750
6771		31.250000
6772		29.296875
6773		33.203125
6774		31.250000
6775		37.109375
6776		35.156250
6777		39.062500
6778		37.109375
6779		39.062500
6780		39.062500
6781		41.015625
6782		39.062500
6783		44.921875
6784		42.968750
6785		44.921875
6786		42.968750
6787		48.828125
6788		44.921875
6789		48.828125
6790		46.875000
6791		50.781250
6792		48.828125
6793		52.734375
6794		48.828125
6795		52.734375
6796		50.781250
6797		54.687500
6798		52.734375
6799		56.640625
6800		54.687500
6801		56.640625
6802		54.687500
6803		58.593750
6804		54.687500
6805		58.593750
6806		56.640625
6807		58.593750
6808		56.640625
6809		60.546875
6810		56.640625
6811		60.546875
6812		58.593750
6813		60.546875
6814		58.593750
6815		60.546875
6816		56.640625
6817		60.546875
6818		58.593750
6819		60.546875
6820		58.593750
6821		60.546875
6822		58.593750
6823		60.546875
6824		58.593750
6825		60.546875
6826		56.640625
6827		60.546875
6828		56.640625
6829		60.546875
6830		56.640625
6831		58.593750
6832		54.687500
6833		58.593750
6834		54.687500
6835		58.593750
6836		52.734375
6837		56.640625
6838		52.734375
6839		56.640625
6840		50.781250
6841		54.687500
6842		50.781250
6843		52.734375
6844		48.828125
6845		52.734375
6846		46.875000
6847		50.781250
6848		44.921875
6849		48.828125
6850		42.968750
6851		46.875000
6852		41.015625
6853		44.921875
6854		39.062500
6855		42.968750
6856		37.109375
6857		42.968750
6858		35.156250
6859		41.015625
6860		33.203125
6861		37.109375
6862		31.250000
6863		35.156250
6864		29.296875
6865		33.203125
6866		27.343750
6867		31.250000
6868		25.390625
6869		29.296875
6870		21.484375
6871		27.343750
6872		19.531250
6873		23.437500
6874		17.578125
6875		21.484375
6876		15.625000
6877		19.531250
6878		13.671875
6879		17.578125
6880		9.765625
6881		13.671875
6882		7.812500
6883		11.718750
6884		5.859375
6885		9.765625
6886		1.953125
6887		7.812500
6888		0.000000
6889		3.906250
6890		-1.953125
6891		1.953125
6892		-3.906250
6893		0.000000
6894		-7.812500
6895		-1.953125
6896		-9.765625
6897		-5.859375
6898		-11.718750
6899		-7.812500
6900		-15.625000
6901		-9.765625
6902		-17.578125
6903		-11.718750
6904		-19.531250
6905		-15.625000
6906		-21.484375
6907		-17.578125
6908		-23.437500
6909		-19.531250
6910		-25.390625
6911		-19.531250
6912		-27.343750
6913		-21.484375
6914		-29.296875
6915		-25.390625
6916		-29.296875
6917		-27.343750
6918		-33.203125
6919		-27.343750
6920		-33.203125
6921		-29.296875
6922		-35.156250
6923		-31.250000
6924		-37.109375
6925		-33.203125
6926		-37.109375
6927		-33.203125
6928		-39.062500
6929		-35.156250
6930		-39.062500
6931		-37.109375
6932		-41.015625
6933		-37.109375
6934		-41.015625
6935		-37.109375
6936		-41.015625
6937		-37.109375
6938		-41.015625
6939		-37.109375
6940		-42.968750
6941		-39.062500
6942		-42.968750
6943		-39.062500
6944		-41.015625
6945		-39.062500
6946		-41.015625
6947		-39.062500
6948		-41.015625
6949		-39.062500
6950		-42.968750
6951		-37.109375
6952		-41.015625
6953		-37.109375
6954		-41.015625
6955		-37.109375
6956		-39.062500
6957		-37.109375
6958		-39.062500
6959		-35.156250
6960		-37.109375
6961		-35.156250
6962		-37.109375
6963		-33.203125
6964		-35.156250
6965		-31.250000
6966		-33.203125
6967		-29.296875
6968		-33.203125
6969		-29.296875
6970		-31.250000
6971		-27.343750
6972		-29.296875
6973		-25.390625
6974		-27.343750
6975		-23.437500
6976		-25.390625
6977		-21.484375
6978		-23.437500
6979		-19.531250
6980		-21.484375
6981		-17.578125
6982		-19.531250
6983		-15.625000
6984		-17.578125
6985		-13.671875
6986		-15.625000
6987		-9.765625
6988		-13.671875
6989		-7.812500
6990		-11.718750
6991		-5.859375
6992		-7.812500
6993		-3.906250
6994		-5.859375
6995		-1.953125
6996		-3.906250
6997		0.000000
6998		0.000000
6999		3.906250
7000		1.953125
7001		5.859375
7002		3.906250
7003		7.812500
7004		5.859375
7005		9.765625
7006		7.812500
7007		13.671875
7008		11.718750
7009		15.625000
7010		13.671875
7011		17.578125
7012		17.578125
7013		21.484375
7014		19.531250
7015		23.437500
7016		21.484375
7017		27.343750
7018		23.437500
7019		27.343750
7020		25.390625
7021		29.296875
7022		27.343750
7023		33.203125
7024		31.250000
7025		35.156250
7026		33.203125
7027		37.109375
7028		35.156250
7029		39.062500
7030		37.109375
7031		41.015625
7032		39.062500
7033		42.968750
7034		39.062500
7035		44.921875
7036		41.015625
7037		46.875000
7038		44.921875
7039		48.828125
7040		46.875000
7041		48.828125
7042		48.828125
7043		50.781250
7044		48.828125
7045		52.734375
7046		48.828125
7047		54.687500
7048		52.734375
7049		54.687500
7050		52.734375
7051		56.640625
7052		52.734375
7053		56.640625
7054		54.687500
7055		58.593750
7056		56.640625
7057		58.593750
7058		56.640625
7059		60.546875
7060		56.640625
7061		60.546875
7062		56.640625
7063		60.546875
7064		56.640625
7065		60.546875
7066		58.593750
7067		60.546875
7068		58.593750
7069		60.546875
7070		56.640625
7071		60.546875
7072		56.640625
7073		60.546875
7074		56.640625
7075		60.546875
7076		56.640625
7077		60.546875
7078		56.640625
7079		60.546875
7080		56.640625
7081		60.546875
7082		54.687500
7083		58.593750
7084		54.687500
7085		58.593750
7086		52.734375
7087		56.640625
7088		52.734375
7089		56.640625
7090		50.781250
7091		54.687500
7092		50.781250
7093		52.734375
7094		48.828125
7095		52.734375
7096		46.875000
7097		50.781250
7098		46.875000
7099		48.828125
7100		44.921875
7101		46.875000
7102		42.968750
7103		46.875000
7104		41.015625
7105		44.921875
7106		39.062500
7107		42.968750
7108		37.109375
7109		41.015625
7110		33.203125
7111		39.062500
7112		31.250000
7113		35.156250
7114		29.296875
7115		33.203125
7116		27.343750
7117		31.250000
7118		25.390625
7119		29.296875
7120		23.437500
7121		27.343750
7122		19.531250
7123		25.390625
7124		17.578125
7125		23.437500
7126		15.625000
7127		19.531250
7128		13.671875
7129		17.578125
7130		11.718750
7131		15.625000
7132		7.812500
7133		11.718750
7134		5.859375
7135		9.765625
7136		1.953125
7137		7.812500
7138		1.953125
7139		5.859375
7140		-1.953125
7141		3.906250
7142		-3.906250
7143		0.000000
7144		-7.812500
7145		-1.953125
7146		-9.765625
7147		-5.859375
7148		-11.718750
7149		-7.812500
7150		-13.671875
7151		-9.765625
7152		-15.625000
7153		-11.718750
7154		-17.578125
7155		-13.671875
7156		-21.484375
7157		-15.625000
7158		-23.437500
7159		-19.531250
7160		-23.437500
7161		-21.484375
7162		-27.343750
7163		-23.437500
7164		-27.343750
7165		-23.437500
7166		-29.296875
7167		-27.343750
7168		-31.250000
7169		-27.343750
7170		-33.203125
7171		-29.296875
7172		-35.156250
7173		-31.250000
7174		-37.109375
7175		-33.203125
7176		-37.109375
7177		-33.203125
7178		-39.062500
7179		-35.156250
7180		-39.062500
7181		-35.156250
7182		-39.062500
7183		-37.109375
7184		-41.015625
7185		-37.109375
7186		-42.968750
7187		-37.109375
7188		-41.015625
7189		-39.062500
7190		-42.968750
7191		-39.062500
7192		-42.968750
7193		-39.062500
7194		-42.968750
7195		-39.062500
7196		-42.968750
7197		-39.062500
7198		-41.015625
7199		-39.062500
7200		-41.015625
7201		-39.062500
7202		-41.015625
7203		-39.062500
7204		-41.015625
7205		-37.109375
7206		-41.015625
7207		-37.109375
7208		-39.062500
7209		-35.156250
7210		-39.062500
7211		-35.156250
7212		-37.109375
7213		-33.203125
7214		-37.109375
7215		-33.203125
7216		-35.156250
7217		-31.250000
7218		-33.203125
7219		-29.296875
7220		-31.250000
7221		-27.343750
7222		-31.250000
7223		-25.390625
7224		-29.296875
7225		-25.390625
7226		-27.343750
7227		-21.484375
7228		-25.390625
7229		-21.484375
7230		-23.437500
7231		-17.578125
7232		-21.484375
7233		-17.578125
7234		-19.531250
7235		-13.671875
7236		-17.578125
7237		-11.718750
7238		-13.671875
7239		-9.765625
7240		-11.718750
7241		-7.812500
7242		-9.765625
7243		-5.859375
7244		-7.812500
7245		-1.953125
7246		-3.906250
7247		0.000000
7248		-1.953125
7249		1.953125
7250		0.000000
7251		3.906250
7252		3.906250
7253		7.812500
7254		5.859375
7255		9.765625
7256		7.812500
7257		11.718750
7258		9.765625
7259		15.625000
7260		11.718750
7261		17.578125
7262		15.625000
7263		19.531250
7264		17.578125
7265		21.484375
7266		21.484375
7267		23.437500
7268		23.437500
7269		27.343750
7270		23.437500
7271		29.296875
7272		27.343750
7273		31.250000
7274		29.296875
7275		33.203125
7276		31.250000
7277		37.109375
7278		33.203125
7279		39.062500
7280		37.109375
7281		41.015625
7282		37.109375
7283		41.015625
7284		39.062500
7285		42.968750
7286		41.015625
7287		44.921875
7288		42.968750
7289		46.875000
7290		44.921875
7291		48.828125
7292		46.875000
7293		50.781250
7294		46.875000
7295		50.781250
7296		48.828125
7297		52.734375
7298		50.781250
7299		54.687500
7300		52.734375
7301		54.687500
7302		52.734375
7303		56.640625
7304		52.734375
7305		56.640625
7306		54.687500
7307		58.593750
7308		56.640625
7309		58.593750
7310		56.640625
7311		60.546875
7312		56.640625
7313		60.546875
7314		56.640625
7315		60.546875
7316		56.640625
7317		60.546875
7318		58.593750
7319		60.546875
7320		58.593750
7321		60.546875
7322		56.640625
7323		60.546875
7324		56.640625
7325		60.546875
7326		56.640625
7327		60.546875
7328		56.640625
7329		60.546875
7330		56.640625
7331		60.546875
7332		54.687500
7333		58.593750
7334		54.687500
7335		56.640625
7336		52.734375
7337		56.640625
7338		52.734375
7339		56.640625
7340		50.781250
7341		54.687500
7342		50.781250
7343		54.687500
7344		48.828125
7345		52.734375
7346		46.875000
7347		50.781250
7348		44.921875
7349		50.781250
7350		44.921875
7351		48.828125
7352		42.968750
7353		46.875000
7354		41.015625
7355		44.921875
7356		39.062500
7357		42.968750
7358		37.109375
7359		41.015625
7360		35.156250
7361		39.062500
7362		33.203125
7363		37.109375
7364		29.296875
7365		35.156250
7366		29.296875
7367		33.203125
7368		25.390625
7369		29.296875
7370		23.437500
7371		27.343750
7372		21.484375
7373		25.390625
7374		19.531250
7375		23.437500
7376		15.625000
7377		21.484375
7378		13.671875
7379		17.578125
7380		11.718750
7381		15.625000
7382		7.812500
7383		13.671875
7384		5.859375
7385		11.718750
7386		3.906250
7387		7.812500
7388		1.953125
7389		5.859375
7390		0.000000
7391		3.906250
7392		-3.906250
7393		0.000000
7394		-5.859375
7395		-1.953125
7396		-9.765625
7397		-3.906250
7398		-11.718750
7399		-5.859375
7400		-13.671875
7401		-9.765625
7402		-15.625000
7403		-11.718750
7404		-17.578125
7405		-13.671875
7406		-19.531250
7407		-15.625000
7408		-23.437500
7409		-17.578125
7410		-23.437500
7411		-19.531250
7412		-25.390625
7413		-21.484375
7414		-27.343750
7415		-23.437500
7416		-29.296875
7417		-25.390625
7418		-31.250000
7419		-27.343750
7420		-33.203125
7421		-29.296875
7422		-35.156250
7423		-31.250000
7424		-35.156250
7425		-31.250000
7426		-37.109375
7427		-33.203125
7428		-39.062500
7429		-35.156250
7430		-39.062500
7431		-35.156250
7432		-39.062500
7433		-37.109375
7434		-41.015625
7435		-37.109375
7436		-41.015625
7437		-39.062500
7438		-42.968750
7439		-39.062500
7440		-42.968750
7441		-39.062500
7442		-42.968750
7443		-39.062500
7444		-42.968750
7445		-39.062500
7446		-42.968750
7447		-39.062500
7448		-42.968750
7449		-39.062500
7450		-42.968750
7451		-39.062500
7452		-41.015625
7453		-39.062500
7454		-42.968750
7455		-37.109375
7456		-41.015625
7457		-37.109375
7458		-39.062500
7459		-37.109375
7460		-39.062500
7461		-35.156250
7462		-37.109375
7463		-35.156250
7464		-37.109375
7465		-33.203125
7466		-37.109375
7467		-31.250000
7468		-33.203125
7469		-31.250000
7470		-31.250000
7471		-29.296875
7472		-31.250000
7473		-27.343750
7474		-29.296875
7475		-25.390625
7476		-27.343750
7477		-23.437500
7478		-25.390625
7479		-21.484375
7480		-23.437500
7481		-19.531250
7482		-21.484375
7483		-17.578125
7484		-19.531250
7485		-15.625000
7486		-17.578125
7487		-13.671875
7488		-15.625000
7489		-11.718750
7490		-13.671875
7491		-7.812500
7492		-9.765625
7493		-5.859375
7494		-7.812500
7495		-3.906250
7496		-5.859375
7497		0.000000
7498		-3.906250
7499		1.953125
7500		-1.953125
7501		3.906250
7502		1.953125
7503		5.859375
7504		3.906250
7505		9.765625
7506		5.859375
7507		11.718750
7508		9.765625
7509		13.671875
7510		11.718750
7511		15.625000
7512		13.671875
7513		19.531250
7514		17.578125
7515		21.484375
7516		19.531250
7517		23.437500
7518		21.484375
7519		25.390625
7520		23.437500
7521		27.343750
7522		25.390625
7523		29.296875
7524		29.296875
7525		33.203125
7526		31.250000
7527		35.156250
7528		33.203125
7529		37.109375
7530		35.156250
7531		39.062500
7532		35.156250
7533		41.015625
7534		39.062500
7535		42.968750
7536		41.015625
7537		44.921875
7538		42.968750
7539		46.875000
7540		44.921875
7541		48.828125
7542		46.875000
7543		50.781250
7544		46.875000
7545		50.781250
7546		48.828125
7547		52.734375
7548		50.781250
7549		52.734375
7550		50.781250
7551		54.687500
7552		52.734375
7553		56.640625
7554		52.734375
7555		56.640625
7556		54.687500
7557		56.640625
7558		54.687500
7559		58.593750
7560		56.640625
7561		58.593750
7562		56.640625
7563		60.546875
7564		56.640625
7565		60.546875
7566		56.640625
7567		60.546875
7568		58.593750
7569		60.546875
7570		58.593750
7571		60.546875
7572		56.640625
7573		60.546875
7574		56.640625
7575		60.546875
7576		56.640625
7577		60.546875
7578		56.640625
7579		58.593750
7580		56.640625
7581		58.593750
7582		54.687500
7583		58.593750
7584		54.687500
7585		58.593750
7586		54.687500
7587		56.640625
7588		52.734375
7589		56.640625
7590		50.781250
7591		54.687500
7592		50.781250
7593		54.687500
7594		48.828125
7595		52.734375
7596		48.828125
7597		50.781250
7598		46.875000
7599		50.781250
7600		44.921875
7601		48.828125
7602		42.968750
7603		46.875000
7604		41.015625
7605		44.921875
7606		39.062500
7607		44.921875
7608		37.109375
7609		42.968750
7610		35.156250
7611		39.062500
7612		33.203125
7613		37.109375
7614		31.250000
7615		35.156250
7616		29.296875
7617		33.203125
7618		27.343750
7619		31.250000
7620		25.390625
7621		27.343750
7622		21.484375
7623		25.390625
7624		19.531250
7625		25.390625
7626		17.578125
7627		21.484375
7628		13.671875
7629		19.531250
7630		11.718750
7631		15.625000
7632		9.765625
7633		13.671875
7634		7.812500
7635		11.718750
7636		3.906250
7637		9.765625
7638		1.953125
7639		5.859375
7640		0.000000
7641		3.906250
7642		-3.906250
7643		1.953125
7644		-5.859375
7645		-1.953125
7646		-7.812500
7647		-3.906250
7648		-9.765625
7649		-5.859375
7650		-13.671875
7651		-7.812500
7652		-15.625000
7653		-11.718750
7654		-17.578125
7655		-13.671875
7656		-19.531250
7657		-15.625000
7658		-21.484375
7659		-17.578125
7660		-23.437500
7661		-19.531250
7662		-25.390625
7663		-21.484375
7664		-29.296875
7665		-23.437500
7666		-29.296875
7667		-25.390625
7668		-31.250000
7669		-27.343750
7670		-33.203125
7671		-29.296875
7672		-33.203125
7673		-31.250000
7674		-35.156250
7675		-33.203125
7676		-37.109375
7677		-33.203125
7678		-39.062500
7679		-35.156250
7680		-39.062500
7681		-35.156250
7682		-41.015625
7683		-37.109375
7684		-42.968750
7685		-37.109375
7686		-41.015625
7687		-39.062500
7688		-41.015625
7689		-39.062500
7690		-42.968750
7691		-39.062500
7692		-42.968750
7693		-39.062500
7694		-42.968750
7695		-39.062500
7696		-42.968750
7697		-39.062500
7698		-42.968750
7699		-39.062500
7700		-42.968750
7701		-39.062500
7702		-42.968750
7703		-39.062500
7704		-41.015625
7705		-39.062500
7706		-41.015625
7707		-37.109375
7708		-41.015625
7709		-37.109375
7710		-39.062500
7711		-37.109375
7712		-39.062500
7713		-35.156250
7714		-37.109375
7715		-33.203125
7716		-37.109375
7717		-33.203125
7718		-35.156250
7719		-31.250000
7720		-33.203125
7721		-31.250000
7722		-31.250000
7723		-29.296875
7724		-31.250000
7725		-27.343750
7726		-29.296875
7727		-25.390625
7728		-27.343750
7729		-23.437500
7730		-25.390625
7731		-21.484375
7732		-23.437500
7733		-17.578125
7734		-21.484375
7735		-15.625000
7736		-17.578125
7737		-13.671875
7738		-15.625000
7739		-11.718750
7740		-13.671875
7741		-9.765625
7742		-11.718750
7743		-7.812500
7744		-9.765625
7745		-3.906250
7746		-7.812500
7747		-1.953125
7748		-3.906250
7749		0.000000
7750		-1.953125
7751		1.953125
7752		0.000000
7753		3.906250
7754		1.953125
7755		7.812500
7756		5.859375
7757		9.765625
7758		7.812500
7759		11.718750
7760		9.765625
7761		15.625000
7762		11.718750
7763		17.578125
7764		15.625000
7765		19.531250
7766		17.578125
7767		23.437500
7768		19.531250
7769		25.390625
7770		23.437500
7771		27.343750
7772		25.390625
7773		29.296875
7774		27.343750
7775		31.250000
7776		29.296875
7777		33.203125
7778		31.250000
7779		37.109375
7780		33.203125
7781		39.062500
7782		35.156250
7783		41.015625
7784		37.109375
7785		42.968750
7786		39.062500
7787		42.968750
7788		41.015625
7789		44.921875
7790		42.968750
7791		46.875000
7792		44.921875
7793		48.828125
7794		46.875000
7795		50.781250
7796		48.828125
7797		50.781250
7798		48.828125
7799		52.734375
7800		50.781250
7801		54.687500
7802		50.781250
7803		56.640625
7804		52.734375
7805		56.640625
7806		54.687500
7807		56.640625
7808		54.687500
7809		58.593750
7810		54.687500
7811		58.593750
7812		54.687500
7813		58.593750
7814		56.640625
7815		60.546875
7816		56.640625
7817		60.546875
7818		56.640625
7819		60.546875
7820		58.593750
7821		60.546875
7822		56.640625
7823		60.546875
7824		56.640625
7825		60.546875
7826		56.640625
7827		60.546875
7828		56.640625
7829		60.546875
7830		56.640625
7831		58.593750
7832		54.687500
7833		58.593750
7834		54.687500
7835		58.593750
7836		54.687500
7837		58.593750
7838		52.734375
7839		56.640625
7840		50.781250
7841		54.687500
7842		50.781250
7843		54.687500
7844		48.828125
7845		52.734375
7846		48.828125
7847		52.734375
7848		46.875000
7849		50.781250
7850		44.921875
7851		50.781250
7852		42.968750
7853		46.875000
7854		41.015625
7855		44.921875
7856		41.015625
7857		42.968750
7858		37.109375
7859		42.968750
7860		37.109375
7861		39.062500
7862		35.156250
7863		39.062500
7864		31.250000
7865		35.156250
7866		29.296875
7867		33.203125
7868		27.343750
7869		31.250000
7870		25.390625
7871		29.296875
7872		23.437500
7873		27.343750
7874		19.531250
7875		25.390625
7876		17.578125
7877		21.484375
7878		15.625000
7879		19.531250
7880		13.671875
7881		17.578125
7882		9.765625
7883		15.625000
7884		7.812500
7885		11.718750
7886		3.906250
7887		9.765625
7888		1.953125
7889		7.812500
7890		0.000000
7891		3.906250
7892		-1.953125
7893		1.953125
7894		-3.906250
7895		0.000000
7896		-7.812500
7897		-3.906250
7898		-9.765625
7899		-5.859375
7900		-11.718750
7901		-7.812500
7902		-13.671875
7903		-9.765625
7904		-15.625000
7905		-11.718750
7906		-17.578125
7907		-15.625000
7908		-21.484375
7909		-17.578125
7910		-23.437500
7911		-19.531250
7912		-25.390625
7913		-21.484375
7914		-27.343750
7915		-21.484375
7916		-29.296875
7917		-25.390625
7918		-31.250000
7919		-27.343750
7920		-31.250000
7921		-27.343750
7922		-33.203125
7923		-29.296875
7924		-35.156250
7925		-31.250000
7926		-37.109375
7927		-33.203125
7928		-37.109375
7929		-35.156250
7930		-39.062500
7931		-35.156250
7932		-39.062500
7933		-37.109375
7934		-41.015625
7935		-37.109375
7936		-41.015625
7937		-37.109375
7938		-41.015625
7939		-39.062500
7940		-42.968750
7941		-39.062500
7942		-42.968750
7943		-39.062500
7944		-42.968750
7945		-39.062500
7946		-42.968750
7947		-39.062500
7948		-42.968750
7949		-39.062500
7950		-42.968750
7951		-39.062500
7952		-42.968750
7953		-39.062500
7954		-42.968750
7955		-39.062500
7956		-41.015625
7957		-39.062500
7958		-41.015625
7959		-37.109375
7960		-39.062500
7961		-37.109375
7962		-39.062500
7963		-35.156250
7964		-39.062500
7965		-35.156250
7966		-37.109375
7967		-33.203125
7968		-35.156250
7969		-31.250000
7970		-35.156250
7971		-31.250000
7972		-33.203125
7973		-29.296875
7974		-31.250000
7975		-27.343750
7976		-29.296875
7977		-25.390625
7978		-27.343750
7979		-23.437500
7980		-25.390625
7981		-21.484375
7982		-23.437500
7983		-19.531250
7984		-21.484375
7985		-17.578125
7986		-19.531250
7987		-13.671875
7988		-17.578125
7989		-13.671875
7990		-15.625000
7991		-11.718750
7992		-11.718750
7993		-7.812500
7994		-9.765625
7995		-5.859375
7996		-7.812500
7997		-3.906250
7998		-5.859375
7999		-1.953125
8000		-1.953125
8001		1.953125
8002		0.000000
8003		3.906250
8004		1.953125
8005		5.859375
8006		3.906250
8007		7.812500
8008		7.812500
8009		11.718750
8010		9.765625
8011		13.671875
8012		11.718750
8013		17.578125
8014		13.671875
8015		19.531250
8016		17.578125
8017		21.484375
8018		19.531250
8019		23.437500
8020		21.484375
8021		27.343750
8022		23.437500
8023		29.296875
8024		25.390625
8025		31.250000
8026		29.296875
8027		33.203125
8028		31.250000
8029		35.156250
8030		33.203125
8031		37.109375
8032		35.156250
8033		39.062500
8034		37.109375
8035		41.015625
8036		39.062500
8037		42.968750
8038		41.015625
8039		44.921875
8040		42.968750
8041		46.875000
8042		42.968750
8043		48.828125
8044		46.875000
8045		48.828125
8046		46.875000
8047		50.781250
8048		48.828125
8049		52.734375
8050		50.781250
8051		54.687500
8052		50.781250
8053		54.687500
8054		52.734375
8055		56.640625
8056		52.734375
8057		56.640625
8058		54.687500
8059		56.640625
8060		54.687500
8061		58.593750
8062		56.640625
8063		58.593750
8064		56.640625
8065		58.593750
8066		56.640625
8067		60.546875
8068		56.640625
8069		60.546875
8070		56.640625
8071		60.546875
8072		56.640625
8073		60.546875
8074		56.640625
8075		60.546875
8076		56.640625
8077		60.546875
8078		56.640625
8079		60.546875
8080		56.640625
8081		58.593750
8082		54.687500
8083		58.593750
8084		54.687500
8085		58.593750
8086		54.687500
8087		58.593750
8088		52.734375
8089		56.640625
8090		52.734375
8091		54.687500
8092		48.828125
8093		54.687500
8094		48.828125
8095		52.734375
8096		48.828125
8097		52.734375
8098		46.875000
8099		50.781250
8100		44.921875
8101		48.828125
8102		42.968750
8103		48.828125
8104		41.015625
8105		46.875000
8106		41.015625
8107		44.921875
8108		39.062500
8109		42.968750
8110		37.109375
8111		41.015625
8112		35.156250
8113		39.062500
8114		31.250000
8115		37.109375
8116		31.250000
8117		33.203125
8118		27.343750
8119		33.203125
8120		25.390625
8121		29.296875
8122		23.437500
8123		27.343750
8124		21.484375
8125		25.390625
8126		17.578125
8127		23.437500
8128		15.625000
8129		21.484375
8130		13.671875
8131		17.578125
8132		11.718750
8133		15.625000
8134		7.812500
8135		13.671875
8136		5.859375
8137		9.765625
8138		1.953125
8139		7.812500
8140		1.953125
8141		5.859375
8142		-1.953125
8143		1.953125
8144		-3.906250
8145		1.953125
8146		-7.812500
8147		-1.953125
8148		-9.765625
8149		-3.906250
8150		-11.718750
8151		-7.812500
8152		-13.671875
8153		-9.765625
8154		-15.625000
8155		-11.718750
8156		-17.578125
8157		-13.671875
8158		-19.531250
8159		-15.625000
8160		-23.437500
8161		-17.578125
8162		-25.390625
8163		-19.531250
8164		-27.343750
8165		-23.437500
8166		-29.296875
8167		-23.437500
8168		-29.296875
8169		-27.343750
8170		-31.250000
8171		-27.343750
8172		-33.203125
8173		-29.296875
8174		-35.156250
8175		-31.250000
8176		-37.109375
8177		-33.203125
8178		-37.109375
8179		-33.203125
8180		-39.062500
8181		-35.156250
8182		-39.062500
8183		-37.109375
8184		-41.015625
8185		-37.109375
8186		-41.015625
8187		-39.062500
8188		-41.015625
8189		-39.062500
8190		-41.015625
8191		-39.062500
8192		-42.968750
8193		-41.015625
8194		-44.921875
8195		-39.062500
8196		-42.968750
8197		-39.062500
8198		-42.968750
8199		-41.015625
8200		-42.968750
8201		-41.015625
8202		-42.968750
8203		-39.062500
8204		-42.968750
8205		-39.062500
8206		-42.968750
8207		-39.062500
8208		-41.015625
8209		-39.062500
8210		-41.015625
8211		-37.109375
8212		-41.015625
8213		-37.109375
8214		-39.062500
8215		-35.156250
8216		-39.062500
8217		-35.156250
8218		-37.109375
8219		-33.203125
8220		-35.156250
8221		-31.250000
8222		-33.203125
8223		-29.296875
8224		-31.250000
8225		-27.343750
8226		-29.296875
8227		-25.390625
8228		-27.343750
8229		-23.437500
8230		-25.390625
8231		-21.484375
8232		-23.437500
8233		-21.484375
8234		-21.484375
8235		-17.578125
8236		-19.531250
8237		-15.625000
8238		-19.531250
8239		-13.671875
8240		-17.578125
8241		-11.718750
8242		-13.671875
8243		-9.765625
8244		-11.718750
8245		-5.859375
8246		-9.765625
8247		-3.906250
8248		-5.859375
8249		-1.953125
8250		-3.906250
8251		0.000000
8252		-1.953125
8253		1.953125
8254		0.000000
8255		5.859375
8256		3.906250
8257		7.812500
8258		5.859375
8259		9.765625
8260		9.765625
8261		13.671875
8262		11.718750
8263		15.625000
8264		13.671875
8265		17.578125
8266		15.625000
8267		21.484375
8268		17.578125
8269		23.437500
8270		19.531250
8271		25.390625
8272		23.437500
8273		29.296875
8274		25.390625
8275		29.296875
8276		27.343750
8277		31.250000
8278		29.296875
8279		33.203125
8280		31.250000
8281		35.156250
8282		35.156250
8283		39.062500
8284		37.109375
8285		41.015625
8286		39.062500
8287		42.968750
8288		41.015625
8289		42.968750
8290		41.015625
8291		44.921875
8292		42.968750
8293		46.875000
8294		44.921875
8295		48.828125
8296		46.875000
8297		50.781250
8298		48.828125
8299		52.734375
8300		48.828125
8301		52.734375
8302		50.781250
8303		54.687500
8304		52.734375
8305		54.687500
8306		52.734375
8307		56.640625
8308		54.687500
8309		56.640625
8310		54.687500
8311		58.593750
8312		54.687500
8313		58.593750
8314		54.687500
8315		58.593750
8316		56.640625
8317		58.593750
8318		56.640625
8319		60.546875
8320		56.640625
8321		60.546875
8322		56.640625
8323		60.546875
8324		56.640625
8325		60.546875
8326		56.640625
8327		58.593750
8328		56.640625
8329		60.546875
8330		56.640625
8331		58.593750
8332		54.687500
8333		58.593750
8334		54.687500
8335		58.593750
8336		54.687500
8337		56.640625
8338		52.734375
8339		56.640625
8340		52.734375
8341		54.687500
8342		50.781250
8343		54.687500
8344		50.781250
8345		52.734375
8346		48.828125
8347		52.734375
8348		46.875000
8349		50.781250
8350		46.875000
8351		48.828125
8352		44.921875
8353		48.828125
8354		41.015625
8355		46.875000
8356		39.062500
8357		44.921875
8358		39.062500
8359		42.968750
8360		37.109375
8361		41.015625
8362		35.156250
8363		39.062500
8364		33.203125
8365		37.109375
8366		31.250000
8367		35.156250
8368		29.296875
8369		33.203125
8370		25.390625
8371		29.296875
8372		23.437500
8373		27.343750
8374		21.484375
8375		25.390625
8376		19.531250
8377		23.437500
8378		15.625000
8379		21.484375
8380		13.671875
8381		19.531250
8382		11.718750
8383		15.625000
8384		9.765625
8385		13.671875
8386		5.859375
8387		11.718750
8388		3.906250
8389		9.765625
8390		1.953125
8391		5.859375
8392		0.000000
8393		3.906250
8394		-3.906250
8395		0.000000
8396		-5.859375
8397		-1.953125
8398		-7.812500
8399		-3.906250
8400		-11.718750
8401		-5.859375
8402		-13.671875
8403		-9.765625
8404		-15.625000
8405		-11.718750
8406		-17.578125
8407		-13.671875
8408		-19.531250
8409		-15.625000
8410		-21.484375
8411		-17.578125
8412		-25.390625
8413		-19.531250
8414		-25.390625
8415		-21.484375
8416		-27.343750
8417		-23.437500
8418		-29.296875
8419		-25.390625
8420		-31.250000
8421		-27.343750
8422		-33.203125
8423		-29.296875
8424		-35.156250
8425		-31.250000
8426		-35.156250
8427		-33.203125
8428		-37.109375
8429		-33.203125
8430		-39.062500
8431		-33.203125
8432		-39.062500
8433		-35.156250
8434		-41.015625
8435		-37.109375
8436		-41.015625
8437		-37.109375
8438		-42.968750
8439		-39.062500
8440		-42.968750
8441		-39.062500
8442		-42.968750
8443		-39.062500
8444		-42.968750
8445		-41.015625
8446		-42.968750
8447		-39.062500
8448		-42.968750
8449		-41.015625
8450		-42.968750
8451		-41.015625
8452		-42.968750
8453		-41.015625
8454		-42.968750
8455		-39.062500
8456		-42.968750
8457		-39.062500
8458		-41.015625
8459		-39.062500
8460		-41.015625
8461		-39.062500
8462		-41.015625
8463		-37.109375
8464		-39.062500
8465		-35.156250
8466		-39.062500
8467		-35.156250
8468		-37.109375
8469		-33.203125
8470		-35.156250
8471		-33.203125
8472		-35.156250
8473		-31.250000
8474		-33.203125
8475		-29.296875
8476		-31.250000
8477		-27.343750
8478		-29.296875
8479		-25.390625
8480		-29.296875
8481		-23.437500
8482		-25.390625
8483		-21.484375
8484		-23.437500
8485		-19.531250
8486		-21.484375
8487		-17.578125
8488		-19.531250
8489		-15.625000
8490		-17.578125
8491		-11.718750
8492		-15.625000
8493		-11.718750
8494		-11.718750
8495		-7.812500
8496		-9.765625
8497		-5.859375
8498		-7.812500
8499		-3.906250
8500		-5.859375
8501		0.000000
8502		-3.906250
8503		1.953125
8504		-1.953125
8505		3.906250
8506		1.953125
8507		5.859375
8508		3.906250
8509		9.765625
8510		7.812500
8511		11.718750
8512		9.765625
8513		13.671875
8514		9.765625
8515		17.578125
8516		13.671875
8517		19.531250
8518		17.578125
8519		21.484375
8520		19.531250
8521		23.437500
8522		21.484375
8523		25.390625
8524		23.437500
8525		29.296875
8526		25.390625
8527		31.250000
8528		29.296875
8529		33.203125
8530		31.250000
8531		37.109375
8532		31.250000
8533		39.062500
8534		35.156250
8535		39.062500
8536		37.109375
8537		41.015625
8538		39.062500
8539		42.968750
8540		41.015625
8541		46.875000
8542		42.968750
8543		46.875000
8544		44.921875
8545		46.875000
8546		44.921875
8547		52.734375
8548		44.921875
8549		52.734375
8550		46.875000
8551		52.734375
8552		50.781250
8553		52.734375
8554		50.781250
8555		56.640625
8556		52.734375
8557		54.687500
8558		52.734375
8559		58.593750
8560		54.687500
8561		56.640625
8562		54.687500
8563		58.593750
8564		54.687500
8565		60.546875
8566		54.687500
8567		60.546875
8568		56.640625
8569		60.546875
8570		56.640625
8571		58.593750
8572		54.687500
8573		60.546875
8574		54.687500
8575		60.546875
8576		54.687500
8577		60.546875
8578		56.640625
8579		58.593750
8580		54.687500
8581		60.546875
8582		54.687500
8583		60.546875
8584		52.734375
8585		60.546875
8586		52.734375
8587		58.593750
8588		50.781250
8589		58.593750
8590		50.781250
8591		56.640625
8592		48.828125
8593		56.640625
8594		50.781250
8595		52.734375
8596		48.828125
8597		52.734375
8598		44.921875
8599		52.734375
8600		44.921875
8601		52.734375
8602		42.968750
8603		48.828125
8604		41.015625
8605		46.875000
8606		39.062500
8607		46.875000
8608		37.109375
8609		44.921875
8610		37.109375
8611		42.968750
8612		35.156250
8613		39.062500
8614		31.250000
8615		39.062500
8616		29.296875
8617		37.109375
8618		27.343750
8619		35.156250
8620		25.390625
8621		33.203125
8622		23.437500
8623		31.250000
8624		19.531250
8625		29.296875
8626		19.531250
8627		25.390625
8628		17.578125
8629		21.484375
8630		13.671875
8631		19.531250
8632		9.765625
8633		17.578125
8634		7.812500
8635		15.625000
8636		5.859375
8637		11.718750
8638		3.906250
8639		11.718750
8640		0.000000
8641		9.765625
8642		-1.953125
8643		5.859375
8644		-1.953125
8645		1.953125
8646		-5.859375
8647		-1.953125
8648		-9.765625
8649		-1.953125
8650		-11.718750
8651		-3.906250
8652		-13.671875
8653		-5.859375
8654		-17.578125
8655		-7.812500
8656		-19.531250
8657		-11.718750
8658		-19.531250
8659		-13.671875
8660		-21.484375
8661		-15.625000
8662		-23.437500
8663		-19.531250
8664		-27.343750
8665		-21.484375
8666		-29.296875
8667		-21.484375
8668		-31.250000
8669		-23.437500
8670		-33.203125
8671		-25.390625
8672		-35.156250
8673		-27.343750
8674		-37.109375
8675		-29.296875
8676		-37.109375
8677		-31.250000
8678		-37.109375
8679		-33.203125
8680		-37.109375
8681		-35.156250
8682		-41.015625
8683		-35.156250
8684		-42.968750
8685		-35.156250
8686		-42.968750
8687		-37.109375
8688		-42.968750
8689		-37.109375
8690		-44.921875
8691		-37.109375
8692		-44.921875
8693		-37.109375
8694		-42.968750
8695		-39.062500
8696		-42.968750
8697		-41.015625
8698		-46.875000
8699		-39.062500
8700		-46.875000
8701		-39.062500
8702		-46.875000
8703		-37.109375
8704		-44.921875
8705		-39.062500
8706		-44.921875
8707		-37.109375
8708		-44.921875
8709		-37.109375
8710		-42.968750
8711		-37.109375
8712		-41.015625
8713		-37.109375
8714		-39.062500
8715		-35.156250
8716		-41.015625
8717		-33.203125
8718		-39.062500
8719		-31.250000
8720		-39.062500
8721		-31.250000
8722		-37.109375
8723		-29.296875
8724		-35.156250
8725		-27.343750
8726		-33.203125
8727		-27.343750
8728		-29.296875
8729		-25.390625
8730		-27.343750
8731		-25.390625
8732		-27.343750
8733		-21.484375
8734		-27.343750
8735		-17.578125
8736		-25.390625
8737		-15.625000
8738		-21.484375
8739		-13.671875
8740		-19.531250
8741		-11.718750
8742		-17.578125
8743		-9.765625
8744		-15.625000
8745		-7.812500
8746		-11.718750
8747		-7.812500
8748		-7.812500
8749		-1.953125
8750		-7.812500
8751		0.000000
8752		-5.859375
8753		3.906250
8754		-3.906250
8755		3.906250
8756		0.000000
8757		7.812500
8758		1.953125
8759		9.765625
8760		3.906250
8761		11.718750
8762		9.765625
8763		13.671875
8764		11.718750
8765		15.625000
8766		13.671875
8767		19.531250
8768		15.625000
8769		21.484375
8770		17.578125
8771		23.437500
8772		19.531250
8773		25.390625
8774		23.437500
8775		29.296875
8776		25.390625
8777		31.250000
8778		27.343750
8779		31.250000
8780		31.250000
8781		35.156250
8782		31.250000
8783		39.062500
8784		31.250000
8785		41.015625
8786		35.156250
8787		42.968750
8788		35.156250
8789		44.921875
8790		39.062500
8791		46.875000
8792		39.062500
8793		46.875000
8794		41.015625
8795		48.828125
8796		44.921875
8797		48.828125
8798		46.875000
8799		50.781250
8800		46.875000
8801		52.734375
8802		48.828125
8803		54.687500
8804		48.828125
8805		56.640625
8806		48.828125
8807		56.640625
8808		50.781250
8809		58.593750
8810		50.781250
8811		58.593750
8812		54.687500
8813		56.640625
8814		54.687500
8815		58.593750
8816		52.734375
8817		60.546875
8818		54.687500
8819		60.546875
8820		54.687500
8821		60.546875
8822		54.687500
8823		62.500000
8824		54.687500
8825		60.546875
8826		54.687500
8827		62.500000
8828		54.687500
8829		60.546875
8830		56.640625
8831		58.593750
8832		52.734375
8833		60.546875
8834		52.734375
8835		60.546875
8836		52.734375
8837		58.593750
8838		52.734375
8839		58.593750
8840		50.781250
8841		58.593750
8842		48.828125
8843		56.640625
8844		48.828125
8845		56.640625
8846		48.828125
8847		52.734375
8848		48.828125
8849		52.734375
8850		44.921875
8851		52.734375
8852		42.968750
8853		50.781250
8854		41.015625
8855		48.828125
8856		39.062500
8857		46.875000
8858		37.109375
8859		46.875000
8860		35.156250
8861		44.921875
8862		37.109375
8863		41.015625
8864		35.156250
8865		39.062500
8866		29.296875
8867		37.109375
8868		29.296875
8869		35.156250
8870		25.390625
8871		33.203125
8872		23.437500
8873		31.250000
8874		21.484375
8875		29.296875
8876		17.578125
8877		27.343750
8878		17.578125
8879		23.437500
8880		15.625000
8881		19.531250
8882		11.718750
8883		17.578125
8884		7.812500
8885		15.625000
8886		5.859375
8887		15.625000
8888		1.953125
8889		11.718750
8890		0.000000
8891		9.765625
8892		-1.953125
8893		5.859375
8894		-3.906250
8895		3.906250
8896		-3.906250
8897		0.000000
8898		-5.859375
8899		-1.953125
8900		-11.718750
8901		-3.906250
8902		-13.671875
8903		-5.859375
8904		-15.625000
8905		-7.812500
8906		-19.531250
8907		-9.765625
8908		-21.484375
8909		-11.718750
8910		-23.437500
8911		-13.671875
8912		-23.437500
8913		-17.578125
8914		-25.390625
8915		-21.484375
8916		-29.296875
8917		-23.437500
8918		-31.250000
8919		-23.437500
8920		-33.203125
8921		-25.390625
8922		-35.156250
8923		-27.343750
8924		-35.156250
8925		-27.343750
8926		-37.109375
8927		-31.250000
8928		-37.109375
8929		-31.250000
8930		-37.109375
8931		-35.156250
8932		-39.062500
8933		-35.156250
8934		-42.968750
8935		-35.156250
8936		-42.968750
8937		-37.109375
8938		-42.968750
8939		-37.109375
8940		-44.921875
8941		-37.109375
8942		-44.921875
8943		-39.062500
8944		-44.921875
8945		-39.062500
8946		-44.921875
8947		-39.062500
8948		-42.968750
8949		-41.015625
8950		-44.921875
8951		-39.062500
8952		-44.921875
8953		-39.062500
8954		-44.921875
8955		-39.062500
8956		-44.921875
8957		-37.109375
8958		-44.921875
8959		-37.109375
8960		-42.968750
8961		-37.109375
8962		-42.968750
8963		-37.109375
8964		-39.062500
8965		-37.109375
8966		-39.062500
8967		-35.156250
8968		-39.062500
8969		-33.203125
8970		-39.062500
8971		-31.250000
8972		-37.109375
8973		-31.250000
8974		-35.156250
8975		-27.343750
8976		-35.156250
8977		-27.343750
8978		-33.203125
8979		-25.390625
8980		-29.296875
8981		-25.390625
8982		-27.343750
8983		-23.437500
8984		-27.343750
8985		-19.531250
8986		-25.390625
8987		-17.578125
8988		-23.437500
8989		-15.625000
8990		-21.484375
8991		-13.671875
8992		-19.531250
8993		-9.765625
8994		-15.625000
8995		-7.812500
8996		-15.625000
8997		-7.812500
8998		-9.765625
8999		-5.859375
9000		-7.812500
9001		-1.953125
9002		-5.859375
9003		1.953125
9004		-3.906250
9005		3.906250
9006		-1.953125
9007		5.859375
9008		0.000000
9009		9.765625
9010		3.906250
9011		11.718750
9012		5.859375
9013		13.671875
9014		9.765625
9015		13.671875
9016		13.671875
9017		17.578125
9018		13.671875
9019		21.484375
9020		15.625000
9021		25.390625
9022		17.578125
9023		25.390625
9024		21.484375
9025		29.296875
9026		23.437500
9027		31.250000
9028		25.390625
9029		33.203125
9030		27.343750
9031		33.203125
9032		31.250000
9033		37.109375
9034		33.203125
9035		39.062500
9036		33.203125
9037		41.015625
9038		35.156250
9039		42.968750
9040		37.109375
9041		44.921875
9042		39.062500
9043		46.875000
9044		41.015625
9045		48.828125
9046		42.968750
9047		48.828125
9048		46.875000
9049		48.828125
9050		48.828125
9051		50.781250
9052		46.875000
9053		54.687500
9054		48.828125
9055		54.687500
9056		50.781250
9057		56.640625
9058		50.781250
9059		58.593750
9060		50.781250
9061		58.593750
9062		50.781250
9063		58.593750
9064		52.734375
9065		58.593750
9066		56.640625
9067		58.593750
9068		54.687500
9069		60.546875
9070		54.687500
9071		60.546875
9072		54.687500
9073		62.500000
9074		54.687500
9075		62.500000
9076		54.687500
9077		60.546875
9078		54.687500
9079		60.546875
9080		54.687500
9081		60.546875
9082		56.640625
9083		58.593750
9084		54.687500
9085		60.546875
9086		52.734375
9087		60.546875
9088		50.781250
9089		58.593750
9090		50.781250
9091		58.593750
9092		50.781250
9093		56.640625
9094		48.828125
9095		56.640625
9096		48.828125
9097		54.687500
9098		48.828125
9099		50.781250
9100		46.875000
9101		50.781250
9102		44.921875
9103		50.781250
9104		42.968750
9105		48.828125
9106		41.015625
9107		48.828125
9108		39.062500
9109		46.875000
9110		37.109375
9111		44.921875
9112		35.156250
9113		42.968750
9114		35.156250
9115		41.015625
9116		33.203125
9117		37.109375
9118		29.296875
9119		35.156250
9120		25.390625
9121		35.156250
9122		23.437500
9123		33.203125
9124		21.484375
9125		29.296875
9126		19.531250
9127		27.343750
9128		17.578125
9129		25.390625
9130		15.625000
9131		23.437500
9132		13.671875
9133		17.578125
9134		11.718750
9135		15.625000
9136		7.812500
9137		15.625000
9138		3.906250
9139		13.671875
9140		1.953125
9141		9.765625
9142		0.000000
9143		7.812500
9144		-3.906250
9145		5.859375
9146		-5.859375
9147		1.953125
9148		-5.859375
9149		0.000000
9150		-7.812500
9151		-3.906250
9152		-13.671875
9153		-5.859375
9154		-15.625000
9155		-7.812500
9156		-17.578125
9157		-9.765625
9158		-19.531250
9159		-11.718750
9160		-21.484375
9161		-13.671875
9162		-23.437500
9163		-15.625000
9164		-25.390625
9165		-17.578125
9166		-25.390625
9167		-23.437500
9168		-29.296875
9169		-23.437500
9170		-31.250000
9171		-23.437500
9172		-35.156250
9173		-25.390625
9174		-35.156250
9175		-27.343750
9176		-37.109375
9177		-29.296875
9178		-39.062500
9179		-31.250000
9180		-39.062500
9181		-31.250000
9182		-39.062500
9183		-35.156250
9184		-39.062500
9185		-37.109375
9186		-42.968750
9187		-35.156250
9188		-42.968750
9189		-37.109375
9190		-44.921875
9191		-37.109375
9192		-44.921875
9193		-37.109375
9194		-44.921875
9195		-39.062500
9196		-44.921875
9197		-39.062500
9198		-44.921875
9199		-39.062500
9200		-42.968750
9201		-41.015625
9202		-46.875000
9203		-39.062500
9204		-44.921875
9205		-39.062500
9206		-44.921875
9207		-39.062500
9208		-44.921875
9209		-37.109375
9210		-44.921875
9211		-37.109375
9212		-42.968750
9213		-37.109375
9214		-42.968750
9215		-35.156250
9216		-39.062500
9217		-37.109375
9218		-39.062500
9219		-35.156250
9220		-39.062500
9221		-31.250000
9222		-39.062500
9223		-31.250000
9224		-37.109375
9225		-29.296875
9226		-35.156250
9227		-27.343750
9228		-33.203125
9229		-25.390625
9230		-31.250000
9231		-23.437500
9232		-29.296875
9233		-23.437500
9234		-25.390625
9235		-21.484375
9236		-25.390625
9237		-17.578125
9238		-23.437500
9239		-15.625000
9240		-23.437500
9241		-13.671875
9242		-19.531250
9243		-11.718750
9244		-17.578125
9245		-9.765625
9246		-15.625000
9247		-5.859375
9248		-11.718750
9249		-5.859375
9250		-7.812500
9251		-3.906250
9252		-5.859375
9253		1.953125
9254		-5.859375
9255		3.906250
9256		-1.953125
9257		5.859375
9258		0.000000
9259		7.812500
9260		1.953125
9261		9.765625
9262		5.859375
9263		13.671875
9264		7.812500
9265		15.625000
9266		11.718750
9267		15.625000
9268		13.671875
9269		19.531250
9270		15.625000
9271		23.437500
9272		17.578125
9273		25.390625
9274		19.531250
9275		27.343750
9276		21.484375
9277		29.296875
9278		23.437500
9279		33.203125
9280		25.390625
9281		35.156250
9282		29.296875
9283		35.156250
9284		33.203125
9285		37.109375
9286		33.203125
9287		41.015625
9288		35.156250
9289		42.968750
9290		37.109375
9291		44.921875
9292		39.062500
9293		46.875000
9294		41.015625
9295		48.828125
9296		42.968750
9297		50.781250
9298		44.921875
9299		50.781250
9300		46.875000
9301		50.781250
9302		48.828125
9303		52.734375
9304		48.828125
9305		54.687500
9306		48.828125
9307		56.640625
9308		50.781250
9309		56.640625
9310		50.781250
9311		58.593750
9312		52.734375
9313		58.593750
9314		52.734375
9315		60.546875
9316		54.687500
9317		60.546875
9318		56.640625
9319		58.593750
9320		54.687500
9321		60.546875
9322		54.687500
9323		60.546875
9324		54.687500
9325		60.546875
9326		54.687500
9327		62.500000
9328		54.687500
9329		60.546875
9330		54.687500
9331		60.546875
9332		54.687500
9333		60.546875
9334		56.640625
9335		58.593750
9336		52.734375
9337		58.593750
9338		52.734375
9339		58.593750
9340		50.781250
9341		58.593750
9342		50.781250
9343		58.593750
9344		48.828125
9345		56.640625
9346		48.828125
9347		54.687500
9348		46.875000
9349		54.687500
9350		48.828125
9351		50.781250
9352		46.875000
9353		48.828125
9354		42.968750
9355		48.828125
9356		41.015625
9357		48.828125
9358		39.062500
9359		46.875000
9360		37.109375
9361		44.921875
9362		35.156250
9363		42.968750
9364		33.203125
9365		41.015625
9366		33.203125
9367		39.062500
9368		31.250000
9369		35.156250
9370		27.343750
9371		33.203125
9372		25.390625
9373		33.203125
9374		23.437500
9375		31.250000
9376		19.531250
9377		29.296875
9378		17.578125
9379		25.390625
9380		15.625000
9381		23.437500
9382		13.671875
9383		21.484375
9384		13.671875
9385		17.578125
9386		9.765625
9387		13.671875
9388		5.859375
9389		13.671875
9390		1.953125
9391		11.718750
9392		1.953125
9393		7.812500
9394		-1.953125
9395		5.859375
9396		-3.906250
9397		3.906250
9398		-7.812500
9399		1.953125
9400		-7.812500
9401		-1.953125
9402		-9.765625
9403		-5.859375
9404		-13.671875
9405		-7.812500
9406		-17.578125
9407		-7.812500
9408		-19.531250
9409		-11.718750
9410		-21.484375
9411		-13.671875
9412		-23.437500
9413		-15.625000
9414		-25.390625
9415		-17.578125
9416		-27.343750
9417		-19.531250
9418		-27.343750
9419		-23.437500
9420		-31.250000
9421		-25.390625
9422		-33.203125
9423		-25.390625
9424		-35.156250
9425		-27.343750
9426		-35.156250
9427		-27.343750
9428		-37.109375
9429		-29.296875
9430		-39.062500
9431		-31.250000
9432		-41.015625
9433		-33.203125
9434		-41.015625
9435		-37.109375
9436		-39.062500
9437		-37.109375
9438		-42.968750
9439		-37.109375
9440		-44.921875
9441		-37.109375
9442		-44.921875
9443		-37.109375
9444		-44.921875
9445		-39.062500
9446		-44.921875
9447		-39.062500
9448		-44.921875
9449		-39.062500
9450		-44.921875
9451		-39.062500
9452		-42.968750
9453		-41.015625
9454		-44.921875
9455		-39.062500
9456		-44.921875
9457		-39.062500
9458		-44.921875
9459		-37.109375
9460		-44.921875
9461		-37.109375
9462		-42.968750
9463		-37.109375
9464		-42.968750
9465		-37.109375
9466		-42.968750
9467		-35.156250
9468		-39.062500
9469		-35.156250
9470		-37.109375
9471		-35.156250
9472		-39.062500
9473		-31.250000
9474		-37.109375
9475		-29.296875
9476		-35.156250
9477		-27.343750
9478		-33.203125
9479		-25.390625
9480		-33.203125
9481		-25.390625
9482		-31.250000
9483		-23.437500
9484		-27.343750
9485		-23.437500
9486		-25.390625
9487		-21.484375
9488		-23.437500
9489		-17.578125
9490		-23.437500
9491		-15.625000
9492		-19.531250
9493		-11.718750
9494		-17.578125
9495		-9.765625
9496		-15.625000
9497		-7.812500
9498		-13.671875
9499		-5.859375
9500		-11.718750
9501		-3.906250
9502		-5.859375
9503		-1.953125
9504		-3.906250
9505		1.953125
9506		-3.906250
9507		5.859375
9508		0.000000
9509		7.812500
9510		1.953125
9511		9.765625
9512		3.906250
9513		11.718750
9514		5.859375
9515		13.671875
9516		9.765625
9517		17.578125
9518		13.671875
9519		17.578125
9520		15.625000
9521		19.531250
9522		17.578125
9523		25.390625
9524		17.578125
9525		27.343750
9526		21.484375
9527		29.296875
9528		23.437500
9529		31.250000
9530		27.343750
9531		33.203125
9532		27.343750
9533		35.156250
9534		29.296875
9535		37.109375
9536		35.156250
9537		39.062500
9538		35.156250
9539		41.015625
9540		37.109375
9541		42.968750
9542		37.109375
9543		44.921875
9544		39.062500
9545		46.875000
9546		41.015625
9547		48.828125
9548		42.968750
9549		50.781250
9550		44.921875
9551		52.734375
9552		48.828125
9553		52.734375
9554		48.828125
9555		52.734375
9556		48.828125
9557		56.640625
9558		48.828125
9559		56.640625
9560		50.781250
9561		58.593750
9562		50.781250
9563		58.593750
9564		52.734375
9565		58.593750
9566		52.734375
9567		60.546875
9568		54.687500
9569		60.546875
9570		56.640625
9571		58.593750
9572		54.687500
9573		60.546875
9574		54.687500
9575		62.500000
9576		54.687500
9577		60.546875
9578		54.687500
9579		60.546875
9580		54.687500
9581		60.546875
9582		54.687500
9583		60.546875
9584		54.687500
9585		60.546875
9586		54.687500
9587		58.593750
9588		54.687500
9589		56.640625
9590		50.781250
9591		58.593750
9592		50.781250
9593		58.593750
9594		48.828125
9595		58.593750
9596		48.828125
9597		56.640625
9598		46.875000
9599		54.687500
9600		46.875000
9601		54.687500
9602		46.875000
9603		50.781250
9604		44.921875
9605		48.828125
9606		41.015625
9607		48.828125
9608		39.062500
9609		46.875000
9610		39.062500
9611		44.921875
9612		35.156250
9613		44.921875
9614		35.156250
9615		42.968750
9616		33.203125
9617		41.015625
9618		31.250000
9619		39.062500
9620		31.250000
9621		33.203125
9622		25.390625
9623		31.250000
9624		23.437500
9625		31.250000
9626		21.484375
9627		29.296875
9628		19.531250
9629		27.343750
9630		15.625000
9631		25.390625
9632		13.671875
9633		21.484375
9634		11.718750
9635		19.531250
9636		11.718750
9637		15.625000
9638		7.812500
9639		11.718750
9640		3.906250
9641		11.718750
9642		1.953125
9643		9.765625
9644		-1.953125
9645		7.812500
9646		-3.906250
9647		3.906250
9648		-5.859375
9649		1.953125
9650		-7.812500
9651		0.000000
9652		-9.765625
9653		-1.953125
9654		-11.718750
9655		-7.812500
9656		-15.625000
9657		-9.765625
9658		-17.578125
9659		-9.765625
9660		-21.484375
9661		-11.718750
9662		-21.484375
9663		-13.671875
9664		-25.390625
9665		-17.578125
9666		-27.343750
9667		-19.531250
9668		-29.296875
9669		-21.484375
9670		-27.343750
9671		-25.390625
9672		-29.296875
9673		-27.343750
9674		-35.156250
9675		-27.343750
9676		-35.156250
9677		-27.343750
9678		-37.109375
9679		-29.296875
9680		-39.062500
9681		-31.250000
9682		-41.015625
9683		-33.203125
9684		-41.015625
9685		-33.203125
9686		-39.062500
9687		-37.109375
9688		-41.015625
9689		-37.109375
9690		-44.921875
9691		-37.109375
9692		-44.921875
9693		-37.109375
9694		-44.921875
9695		-39.062500
9696		-44.921875
9697		-39.062500
9698		-46.875000
9699		-39.062500
9700		-46.875000
9701		-39.062500
9702		-44.921875
9703		-39.062500
9704		-42.968750
9705		-41.015625
9706		-46.875000
9707		-39.062500
9708		-44.921875
9709		-39.062500
9710		-44.921875
9711		-39.062500
9712		-44.921875
9713		-37.109375
9714		-42.968750
9715		-35.156250
9716		-42.968750
9717		-35.156250
9718		-41.015625
9719		-35.156250
9720		-39.062500
9721		-35.156250
9722		-37.109375
9723		-33.203125
9724		-37.109375
9725		-31.250000
9726		-37.109375
9727		-29.296875
9728		-35.156250
9729		-27.343750
9730		-33.203125
9731		-25.390625
9732		-31.250000
9733		-23.437500
9734		-29.296875
9735		-21.484375
9736		-27.343750
9737		-21.484375
9738		-23.437500
9739		-19.531250
9740		-21.484375
9741		-15.625000
9742		-21.484375
9743		-13.671875
9744		-19.531250
9745		-11.718750
9746		-17.578125
9747		-9.765625
9748		-15.625000
9749		-5.859375
9750		-11.718750
9751		-3.906250
9752		-9.765625
9753		-1.953125
9754		-5.859375
9755		-1.953125
9756		-1.953125
9757		1.953125
9758		-1.953125
9759		5.859375
9760		0.000000
9761		7.812500
9762		1.953125
9763		11.718750
9764		3.906250
9765		13.671875
9766		7.812500
9767		15.625000
9768		9.765625
9769		17.578125
9770		13.671875
9771		19.531250
9772		17.578125
9773		21.484375
9774		19.531250
9775		25.390625
9776		19.531250
9777		27.343750
9778		21.484375
9779		31.250000
9780		23.437500
9781		33.203125
9782		27.343750
9783		35.156250
9784		29.296875
9785		37.109375
9786		31.250000
9787		37.109375
9788		35.156250
9789		39.062500
9790		37.109375
9791		42.968750
9792		37.109375
9793		44.921875
9794		39.062500
9795		46.875000
9796		41.015625
9797		48.828125
9798		42.968750
9799		48.828125
9800		44.921875
9801		50.781250
9802		44.921875
9803		52.734375
9804		48.828125
9805		52.734375
9806		50.781250
9807		52.734375
9808		48.828125
9809		56.640625
9810		48.828125
9811		56.640625
9812		50.781250
9813		58.593750
9814		52.734375
9815		58.593750
9816		52.734375
9817		60.546875
9818		52.734375
9819		60.546875
9820		54.687500
9821		60.546875
9822		56.640625
9823		58.593750
9824		52.734375
9825		60.546875
9826		54.687500
9827		60.546875
9828		54.687500
9829		60.546875
9830		54.687500
9831		60.546875
9832		52.734375
9833		60.546875
9834		52.734375
9835		60.546875
9836		52.734375
9837		60.546875
9838		54.687500
9839		56.640625
9840		54.687500
9841		56.640625
9842		50.781250
9843		58.593750
9844		48.828125
9845		56.640625
9846		48.828125
9847		56.640625
9848		46.875000
9849		54.687500
9850		46.875000
9851		54.687500
9852		44.921875
9853		52.734375
9854		44.921875
9855		50.781250
9856		44.921875
9857		46.875000
9858		39.062500
9859		46.875000
9860		39.062500
9861		46.875000
9862		37.109375
9863		44.921875
9864		35.156250
9865		42.968750
9866		33.203125
9867		41.015625
9868		31.250000
9869		39.062500
9870		29.296875
9871		37.109375
9872		29.296875
9873		33.203125
9874		25.390625
9875		29.296875
9876		23.437500
9877		29.296875
9878		17.578125
9879		27.343750
9880		17.578125
9881		25.390625
9882		13.671875
9883		23.437500
9884		11.718750
9885		21.484375
9886		9.765625
9887		17.578125
9888		9.765625
9889		13.671875
9890		5.859375
9891		9.765625
9892		1.953125
9893		9.765625
9894		0.000000
9895		7.812500
9896		-1.953125
9897		5.859375
9898		-5.859375
9899		1.953125
9900		-7.812500
9901		0.000000
9902		-9.765625
9903		-1.953125
9904		-11.718750
9905		-3.906250
9906		-13.671875
9907		-9.765625
9908		-17.578125
9909		-11.718750
9910		-21.484375
9911		-11.718750
9912		-23.437500
9913		-13.671875
9914		-23.437500
9915		-15.625000
9916		-27.343750
9917		-17.578125
9918		-27.343750
9919		-21.484375
9920		-29.296875
9921		-23.437500
9922		-29.296875
9923		-27.343750
9924		-31.250000
9925		-29.296875
9926		-35.156250
9927		-29.296875
9928		-37.109375
9929		-29.296875
9930		-39.062500
9931		-31.250000
9932		-41.015625
9933		-33.203125
9934		-41.015625
9935		-33.203125
9936		-42.968750
9937		-35.156250
9938		-42.968750
9939		-37.109375
9940		-41.015625
9941		-39.062500
9942		-44.921875
9943		-37.109375
9944		-44.921875
9945		-39.062500
9946		-44.921875
9947		-39.062500
9948		-46.875000
9949		-39.062500
9950		-46.875000
9951		-39.062500
9952		-46.875000
9953		-39.062500
9954		-46.875000
9955		-39.062500
9956		-42.968750
9957		-41.015625
9958		-44.921875
9959		-39.062500
9960		-44.921875
9961		-39.062500
9962		-44.921875
9963		-37.109375
9964		-42.968750
9965		-37.109375
9966		-42.968750
9967		-37.109375
9968		-42.968750
9969		-35.156250
9970		-41.015625
9971		-33.203125
9972		-37.109375
9973		-35.156250
9974		-37.109375
9975		-33.203125
9976		-37.109375
9977		-29.296875
9978		-35.156250
9979		-27.343750
9980		-35.156250
9981		-27.343750
9982		-33.203125
9983		-25.390625
9984		-31.250000
9985		-23.437500
9986		-29.296875
9987		-21.484375
9988		-27.343750
9989		-19.531250
9990		-23.437500
9991		-19.531250
9992		-21.484375
9993		-13.671875
9994		-19.531250
9995		-11.718750
9996		-19.531250
9997		-9.765625
9998		-15.625000
9999		-7.812500
10000		-13.671875
