Channel              :		CH1
Frequency            :		1.987kHz
Period               :		0.503ms
PK-PK                :		125.0mV
Probe attenuation    :		1X
Voltage per ADC value:		0.122070mV
Time interval        :		2.00000us

index		CH1_Voltage(mV)
1		48.828125
2		48.828125
3		56.640625
4		50.781250
5		58.593750
6		50.781250
7		60.546875
8		52.734375
9		62.500000
10		54.687500
11		62.500000
12		56.640625
13		62.500000
14		60.546875
15		62.500000
16		58.593750
17		66.406250
18		58.593750
19		66.406250
20		60.546875
21		68.359375
22		60.546875
23		68.359375
24		62.500000
25		68.359375
26		62.500000
27		70.312500
28		62.500000
29		70.312500
30		64.453125
31		68.359375
32		64.453125
33		68.359375
34		62.500000
35		70.312500
36		62.500000
37		70.312500
38		62.500000
39		68.359375
40		60.546875
41		68.359375
42		60.546875
43		68.359375
44		60.546875
45		68.359375
46		60.546875
47		66.406250
48		60.546875
49		64.453125
50		58.593750
51		62.500000
52		56.640625
53		62.500000
54		54.687500
55		60.546875
56		54.687500
57		60.546875
58		52.734375
59		58.593750
60		50.781250
61		56.640625
62		50.781250
63		54.687500
64		46.875000
65		50.781250
66		44.921875
67		48.828125
68		41.015625
69		48.828125
70		39.062500
71		46.875000
72		37.109375
73		44.921875
74		33.203125
75		42.968750
76		31.250000
77		41.015625
78		29.296875
79		37.109375
80		29.296875
81		33.203125
82		25.390625
83		31.250000
84		21.484375
85		29.296875
86		17.578125
87		27.343750
88		15.625000
89		25.390625
90		11.718750
91		21.484375
92		9.765625
93		19.531250
94		5.859375
95		15.625000
96		5.859375
97		11.718750
98		3.906250
99		7.812500
100		-1.953125
101		5.859375
102		-3.906250
103		3.906250
104		-7.812500
105		1.953125
106		-9.765625
107		-1.953125
108		-13.671875
109		-3.906250
110		-15.625000
111		-7.812500
112		-17.578125
113		-9.765625
114		-19.531250
115		-13.671875
116		-21.484375
117		-17.578125
118		-25.390625
119		-17.578125
120		-29.296875
121		-19.531250
122		-31.250000
123		-21.484375
124		-33.203125
125		-25.390625
126		-35.156250
127		-27.343750
128		-37.109375
129		-29.296875
130		-37.109375
131		-31.250000
132		-39.062500
133		-35.156250
134		-42.968750
135		-35.156250
136		-44.921875
137		-37.109375
138		-46.875000
139		-37.109375
140		-46.875000
141		-39.062500
142		-48.828125
143		-41.015625
144		-48.828125
145		-41.015625
146		-48.828125
147		-42.968750
148		-48.828125
149		-46.875000
150		-48.828125
151		-46.875000
152		-52.734375
153		-44.921875
154		-52.734375
155		-44.921875
156		-52.734375
157		-44.921875
158		-52.734375
159		-44.921875
160		-52.734375
161		-44.921875
162		-52.734375
163		-44.921875
164		-48.828125
165		-46.875000
166		-48.828125
167		-44.921875
168		-50.781250
169		-42.968750
170		-48.828125
171		-41.015625
172		-48.828125
173		-41.015625
174		-46.875000
175		-39.062500
176		-44.921875
177		-39.062500
178		-44.921875
179		-37.109375
180		-42.968750
181		-35.156250
182		-39.062500
183		-35.156250
184		-39.062500
185		-31.250000
186		-37.109375
187		-29.296875
188		-35.156250
189		-27.343750
190		-33.203125
191		-25.390625
192		-31.250000
193		-21.484375
194		-29.296875
195		-19.531250
196		-25.390625
197		-17.578125
198		-21.484375
199		-17.578125
200		-19.531250
201		-13.671875
202		-17.578125
203		-9.765625
204		-15.625000
205		-7.812500
206		-11.718750
207		-3.906250
208		-9.765625
209		-1.953125
210		-7.812500
211		1.953125
212		-5.859375
213		3.906250
214		-1.953125
215		5.859375
216		3.906250
217		7.812500
218		5.859375
219		13.671875
220		5.859375
221		15.625000
222		9.765625
223		17.578125
224		11.718750
225		21.484375
226		15.625000
227		23.437500
228		17.578125
229		27.343750
230		21.484375
231		29.296875
232		25.390625
233		29.296875
234		29.296875
235		33.203125
236		29.296875
237		37.109375
238		31.250000
239		39.062500
240		35.156250
241		42.968750
242		35.156250
243		44.921875
244		39.062500
245		46.875000
246		41.015625
247		48.828125
248		42.968750
249		48.828125
250		46.875000
251		50.781250
252		46.875000
253		54.687500
254		48.828125
255		56.640625
256		50.781250
257		58.593750
258		52.734375
259		60.546875
260		54.687500
261		62.500000
262		54.687500
263		62.500000
264		56.640625
265		64.453125
266		60.546875
267		62.500000
268		60.546875
269		66.406250
270		58.593750
271		66.406250
272		60.546875
273		68.359375
274		60.546875
275		68.359375
276		62.500000
277		68.359375
278		60.546875
279		70.312500
280		62.500000
281		70.312500
282		64.453125
283		68.359375
284		64.453125
285		66.406250
286		62.500000
287		70.312500
288		62.500000
289		68.359375
290		60.546875
291		68.359375
292		60.546875
293		68.359375
294		60.546875
295		68.359375
296		60.546875
297		66.406250
298		60.546875
299		66.406250
300		58.593750
301		62.500000
302		56.640625
303		62.500000
304		54.687500
305		62.500000
306		52.734375
307		60.546875
308		52.734375
309		60.546875
310		50.781250
311		58.593750
312		48.828125
313		56.640625
314		46.875000
315		54.687500
316		46.875000
317		50.781250
318		44.921875
319		48.828125
320		41.015625
321		48.828125
322		37.109375
323		46.875000
324		35.156250
325		42.968750
326		33.203125
327		41.015625
328		31.250000
329		39.062500
330		29.296875
331		37.109375
332		27.343750
333		33.203125
334		25.390625
335		29.296875
336		19.531250
337		27.343750
338		17.578125
339		25.390625
340		15.625000
341		23.437500
342		11.718750
343		21.484375
344		7.812500
345		17.578125
346		5.859375
347		15.625000
348		3.906250
349		11.718750
350		1.953125
351		7.812500
352		-1.953125
353		3.906250
354		-5.859375
355		3.906250
356		-9.765625
357		0.000000
358		-11.718750
359		-1.953125
360		-13.671875
361		-3.906250
362		-15.625000
363		-7.812500
364		-19.531250
365		-11.718750
366		-19.531250
367		-15.625000
368		-21.484375
369		-17.578125
370		-27.343750
371		-19.531250
372		-29.296875
373		-21.484375
374		-33.203125
375		-23.437500
376		-35.156250
377		-25.390625
378		-37.109375
379		-29.296875
380		-39.062500
381		-29.296875
382		-39.062500
383		-33.203125
384		-41.015625
385		-37.109375
386		-42.968750
387		-37.109375
388		-44.921875
389		-37.109375
390		-46.875000
391		-39.062500
392		-48.828125
393		-41.015625
394		-48.828125
395		-41.015625
396		-50.781250
397		-42.968750
398		-50.781250
399		-42.968750
400		-48.828125
401		-46.875000
402		-50.781250
403		-44.921875
404		-52.734375
405		-44.921875
406		-52.734375
407		-44.921875
408		-54.687500
409		-44.921875
410		-52.734375
411		-44.921875
412		-52.734375
413		-44.921875
414		-52.734375
415		-44.921875
416		-52.734375
417		-44.921875
418		-48.828125
419		-46.875000
420		-48.828125
421		-42.968750
422		-50.781250
423		-42.968750
424		-48.828125
425		-41.015625
426		-46.875000
427		-39.062500
428		-46.875000
429		-39.062500
430		-44.921875
431		-37.109375
432		-42.968750
433		-35.156250
434		-39.062500
435		-35.156250
436		-37.109375
437		-31.250000
438		-37.109375
439		-29.296875
440		-35.156250
441		-27.343750
442		-33.203125
443		-25.390625
444		-31.250000
445		-23.437500
446		-29.296875
447		-19.531250
448		-25.390625
449		-17.578125
450		-21.484375
451		-17.578125
452		-19.531250
453		-15.625000
454		-17.578125
455		-9.765625
456		-15.625000
457		-7.812500
458		-13.671875
459		-3.906250
460		-9.765625
461		-1.953125
462		-7.812500
463		1.953125
464		-3.906250
465		3.906250
466		-1.953125
467		5.859375
468		3.906250
469		7.812500
470		5.859375
471		13.671875
472		7.812500
473		15.625000
474		9.765625
475		19.531250
476		11.718750
477		21.484375
478		15.625000
479		23.437500
480		19.531250
481		27.343750
482		19.531250
483		29.296875
484		25.390625
485		31.250000
486		29.296875
487		33.203125
488		29.296875
489		37.109375
490		31.250000
491		41.015625
492		33.203125
493		42.968750
494		35.156250
495		44.921875
496		39.062500
497		46.875000
498		41.015625
499		48.828125
500		42.968750
501		48.828125
502		46.875000
503		50.781250
504		48.828125
505		54.687500
506		48.828125
507		56.640625
508		50.781250
509		58.593750
510		50.781250
511		60.546875
512		52.734375
513		60.546875
514		54.687500
515		62.500000
516		56.640625
517		64.453125
518		60.546875
519		62.500000
520		60.546875
521		64.453125
522		58.593750
523		66.406250
524		60.546875
525		68.359375
526		60.546875
527		68.359375
528		62.500000
529		68.359375
530		62.500000
531		68.359375
532		62.500000
533		70.312500
534		64.453125
535		68.359375
536		64.453125
537		66.406250
538		62.500000
539		68.359375
540		62.500000
541		68.359375
542		60.546875
543		68.359375
544		60.546875
545		68.359375
546		58.593750
547		68.359375
548		58.593750
549		66.406250
550		58.593750
551		64.453125
552		58.593750
553		62.500000
554		56.640625
555		62.500000
556		54.687500
557		62.500000
558		52.734375
559		60.546875
560		50.781250
561		58.593750
562		48.828125
563		58.593750
564		46.875000
565		56.640625
566		46.875000
567		54.687500
568		46.875000
569		48.828125
570		44.921875
571		46.875000
572		39.062500
573		46.875000
574		37.109375
575		44.921875
576		35.156250
577		42.968750
578		33.203125
579		41.015625
580		29.296875
581		39.062500
582		27.343750
583		35.156250
584		27.343750
585		33.203125
586		23.437500
587		29.296875
588		19.531250
589		25.390625
590		15.625000
591		25.390625
592		13.671875
593		23.437500
594		9.765625
595		19.531250
596		7.812500
597		17.578125
598		5.859375
599		13.671875
600		1.953125
601		11.718750
602		1.953125
603		5.859375
604		-1.953125
605		1.953125
606		-5.859375
607		1.953125
608		-9.765625
609		0.000000
610		-11.718750
611		-3.906250
612		-13.671875
613		-5.859375
614		-17.578125
615		-7.812500
616		-19.531250
617		-11.718750
618		-21.484375
619		-15.625000
620		-23.437500
621		-19.531250
622		-27.343750
623		-19.531250
624		-31.250000
625		-21.484375
626		-33.203125
627		-23.437500
628		-35.156250
629		-27.343750
630		-37.109375
631		-27.343750
632		-39.062500
633		-31.250000
634		-41.015625
635		-33.203125
636		-41.015625
637		-37.109375
638		-42.968750
639		-39.062500
640		-44.921875
641		-37.109375
642		-46.875000
643		-39.062500
644		-48.828125
645		-41.015625
646		-50.781250
647		-42.968750
648		-50.781250
649		-42.968750
650		-50.781250
651		-42.968750
652		-50.781250
653		-46.875000
654		-50.781250
655		-46.875000
656		-52.734375
657		-46.875000
658		-52.734375
659		-44.921875
660		-52.734375
661		-46.875000
662		-52.734375
663		-44.921875
664		-52.734375
665		-44.921875
666		-52.734375
667		-44.921875
668		-52.734375
669		-44.921875
670		-48.828125
671		-44.921875
672		-48.828125
673		-42.968750
674		-48.828125
675		-41.015625
676		-48.828125
677		-41.015625
678		-46.875000
679		-39.062500
680		-46.875000
681		-39.062500
682		-44.921875
683		-37.109375
684		-42.968750
685		-35.156250
686		-39.062500
687		-35.156250
688		-37.109375
689		-33.203125
690		-37.109375
691		-29.296875
692		-35.156250
693		-27.343750
694		-33.203125
695		-25.390625
696		-31.250000
697		-21.484375
698		-29.296875
699		-19.531250
700		-25.390625
701		-17.578125
702		-21.484375
703		-17.578125
704		-19.531250
705		-13.671875
706		-15.625000
707		-9.765625
708		-15.625000
709		-5.859375
710		-11.718750
711		-3.906250
712		-9.765625
713		-1.953125
714		-5.859375
715		1.953125
716		-3.906250
717		3.906250
718		0.000000
719		5.859375
720		3.906250
721		7.812500
722		7.812500
723		13.671875
724		7.812500
725		15.625000
726		9.765625
727		19.531250
728		13.671875
729		21.484375
730		17.578125
731		25.390625
732		19.531250
733		27.343750
734		21.484375
735		29.296875
736		25.390625
737		31.250000
738		29.296875
739		33.203125
740		29.296875
741		39.062500
742		33.203125
743		41.015625
744		35.156250
745		42.968750
746		37.109375
747		44.921875
748		39.062500
749		46.875000
750		41.015625
751		48.828125
752		42.968750
753		50.781250
754		48.828125
755		50.781250
756		48.828125
757		54.687500
758		48.828125
759		56.640625
760		50.781250
761		58.593750
762		52.734375
763		60.546875
764		54.687500
765		60.546875
766		54.687500
767		62.500000
768		56.640625
769		64.453125
770		60.546875
771		62.500000
772		60.546875
773		64.453125
774		58.593750
775		66.406250
776		60.546875
777		68.359375
778		60.546875
779		68.359375
780		60.546875
781		68.359375
782		62.500000
783		68.359375
784		62.500000
785		68.359375
786		64.453125
787		66.406250
788		64.453125
789		66.406250
790		60.546875
791		68.359375
792		60.546875
793		68.359375
794		60.546875
795		68.359375
796		60.546875
797		68.359375
798		58.593750
799		66.406250
800		58.593750
801		66.406250
802		58.593750
803		64.453125
804		58.593750
805		62.500000
806		54.687500
807		62.500000
808		54.687500
809		62.500000
810		52.734375
811		60.546875
812		50.781250
813		58.593750
814		48.828125
815		56.640625
816		46.875000
817		56.640625
818		46.875000
819		52.734375
820		44.921875
821		48.828125
822		42.968750
823		46.875000
824		39.062500
825		46.875000
826		37.109375
827		44.921875
828		33.203125
829		42.968750
830		31.250000
831		39.062500
832		29.296875
833		37.109375
834		27.343750
835		35.156250
836		25.390625
837		33.203125
838		23.437500
839		27.343750
840		19.531250
841		25.390625
842		15.625000
843		23.437500
844		13.671875
845		21.484375
846		9.765625
847		19.531250
848		5.859375
849		15.625000
850		3.906250
851		13.671875
852		1.953125
853		9.765625
854		0.000000
855		5.859375
856		-1.953125
857		1.953125
858		-7.812500
859		1.953125
860		-9.765625
861		-1.953125
862		-13.671875
863		-3.906250
864		-15.625000
865		-5.859375
866		-19.531250
867		-9.765625
868		-21.484375
869		-11.718750
870		-21.484375
871		-15.625000
872		-23.437500
873		-19.531250
874		-27.343750
875		-21.484375
876		-31.250000
877		-23.437500
878		-33.203125
879		-25.390625
880		-35.156250
881		-27.343750
882		-37.109375
883		-29.296875
884		-39.062500
885		-31.250000
886		-41.015625
887		-33.203125
888		-41.015625
889		-37.109375
890		-42.968750
891		-39.062500
892		-46.875000
893		-39.062500
894		-48.828125
895		-39.062500
896		-48.828125
897		-41.015625
898		-48.828125
899		-42.968750
900		-50.781250
901		-44.921875
902		-52.734375
903		-44.921875
904		-50.781250
905		-46.875000
906		-50.781250
907		-48.828125
908		-52.734375
909		-46.875000
910		-54.687500
911		-46.875000
912		-54.687500
913		-44.921875
914		-54.687500
915		-46.875000
916		-52.734375
917		-44.921875
918		-52.734375
919		-44.921875
920		-52.734375
921		-44.921875
922		-48.828125
923		-46.875000
924		-48.828125
925		-42.968750
926		-50.781250
927		-42.968750
928		-48.828125
929		-41.015625
930		-46.875000
931		-39.062500
932		-46.875000
933		-37.109375
934		-42.968750
935		-37.109375
936		-42.968750
937		-35.156250
938		-39.062500
939		-35.156250
940		-37.109375
941		-33.203125
942		-37.109375
943		-29.296875
944		-35.156250
945		-25.390625
946		-33.203125
947		-23.437500
948		-29.296875
949		-21.484375
950		-27.343750
951		-19.531250
952		-25.390625
953		-17.578125
954		-21.484375
955		-15.625000
956		-17.578125
957		-13.671875
958		-15.625000
959		-9.765625
960		-15.625000
961		-5.859375
962		-13.671875
963		-3.906250
964		-9.765625
965		0.000000
966		-5.859375
967		1.953125
968		-3.906250
969		3.906250
970		-1.953125
971		7.812500
972		3.906250
973		9.765625
974		7.812500
975		13.671875
976		7.812500
977		17.578125
978		11.718750
979		19.531250
980		13.671875
981		21.484375
982		15.625000
983		25.390625
984		19.531250
985		27.343750
986		21.484375
987		31.250000
988		27.343750
989		31.250000
990		29.296875
991		33.203125
992		31.250000
993		39.062500
994		33.203125
995		41.015625
996		35.156250
997		42.968750
998		37.109375
999		44.921875
1000		39.062500
1001		46.875000
1002		42.968750
1003		48.828125
1004		42.968750
1005		50.781250
1006		48.828125
1007		52.734375
1008		48.828125
1009		54.687500
1010		50.781250
1011		56.640625
1012		50.781250
1013		58.593750
1014		52.734375
1015		60.546875
1016		54.687500
1017		62.500000
1018		54.687500
1019		62.500000
1020		56.640625
1021		64.453125
1022		60.546875
1023		64.453125
1024		60.546875
1025		64.453125
1026		60.546875
1027		66.406250
1028		60.546875
1029		68.359375
1030		60.546875
1031		68.359375
1032		60.546875
1033		68.359375
1034		60.546875
1035		68.359375
1036		62.500000
1037		68.359375
1038		62.500000
1039		68.359375
1040		64.453125
1041		66.406250
1042		60.546875
1043		68.359375
1044		60.546875
1045		68.359375
1046		60.546875
1047		68.359375
1048		60.546875
1049		66.406250
1050		58.593750
1051		66.406250
1052		58.593750
1053		66.406250
1054		58.593750
1055		64.453125
1056		58.593750
1057		60.546875
1058		56.640625
1059		60.546875
1060		52.734375
1061		60.546875
1062		52.734375
1063		60.546875
1064		50.781250
1065		58.593750
1066		48.828125
1067		56.640625
1068		46.875000
1069		54.687500
1070		44.921875
1071		52.734375
1072		44.921875
1073		48.828125
1074		42.968750
1075		46.875000
1076		39.062500
1077		44.921875
1078		37.109375
1079		44.921875
1080		33.203125
1081		42.968750
1082		31.250000
1083		39.062500
1084		29.296875
1085		37.109375
1086		25.390625
1087		35.156250
1088		25.390625
1089		31.250000
1090		23.437500
1091		27.343750
1092		17.578125
1093		25.390625
1094		13.671875
1095		23.437500
1096		11.718750
1097		21.484375
1098		9.765625
1099		17.578125
1100		5.859375
1101		15.625000
1102		3.906250
1103		11.718750
1104		1.953125
1105		9.765625
1106		0.000000
1107		3.906250
1108		-1.953125
1109		1.953125
1110		-7.812500
1111		0.000000
1112		-9.765625
1113		-1.953125
1114		-15.625000
1115		-5.859375
1116		-15.625000
1117		-7.812500
1118		-19.531250
1119		-9.765625
1120		-21.484375
1121		-13.671875
1122		-23.437500
1123		-15.625000
1124		-25.390625
1125		-21.484375
1126		-29.296875
1127		-23.437500
1128		-33.203125
1129		-23.437500
1130		-33.203125
1131		-25.390625
1132		-35.156250
1133		-27.343750
1134		-39.062500
1135		-29.296875
1136		-41.015625
1137		-33.203125
1138		-41.015625
1139		-33.203125
1140		-41.015625
1141		-39.062500
1142		-42.968750
1143		-39.062500
1144		-46.875000
1145		-39.062500
1146		-48.828125
1147		-41.015625
1148		-48.828125
1149		-41.015625
1150		-50.781250
1151		-42.968750
1152		-50.781250
1153		-42.968750
1154		-52.734375
1155		-44.921875
1156		-50.781250
1157		-46.875000
1158		-50.781250
1159		-46.875000
1160		-52.734375
1161		-44.921875
1162		-52.734375
1163		-46.875000
1164		-52.734375
1165		-46.875000
1166		-52.734375
1167		-44.921875
1168		-52.734375
1169		-44.921875
1170		-52.734375
1171		-44.921875
1172		-50.781250
1173		-44.921875
1174		-48.828125
1175		-46.875000
1176		-48.828125
1177		-42.968750
1178		-48.828125
1179		-41.015625
1180		-48.828125
1181		-41.015625
1182		-46.875000
1183		-39.062500
1184		-44.921875
1185		-37.109375
1186		-44.921875
1187		-37.109375
1188		-42.968750
1189		-35.156250
1190		-37.109375
1191		-35.156250
1192		-37.109375
1193		-33.203125
1194		-37.109375
1195		-29.296875
1196		-35.156250
1197		-25.390625
1198		-31.250000
1199		-23.437500
1200		-29.296875
1201		-21.484375
1202		-27.343750
1203		-19.531250
1204		-23.437500
1205		-15.625000
1206		-21.484375
1207		-15.625000
1208		-17.578125
1209		-13.671875
1210		-15.625000
1211		-7.812500
1212		-15.625000
1213		-5.859375
1214		-11.718750
1215		-1.953125
1216		-7.812500
1217		0.000000
1218		-5.859375
1219		3.906250
1220		-3.906250
1221		5.859375
1222		0.000000
1223		7.812500
1224		5.859375
1225		9.765625
1226		7.812500
1227		13.671875
1228		7.812500
1229		17.578125
1230		9.765625
1231		19.531250
1232		13.671875
1233		23.437500
1234		17.578125
1235		27.343750
1236		19.531250
1237		29.296875
1238		23.437500
1239		31.250000
1240		27.343750
1241		33.203125
1242		29.296875
1243		35.156250
1244		31.250000
1245		39.062500
1246		33.203125
1247		41.015625
1248		35.156250
1249		42.968750
1250		39.062500
1251		46.875000
1252		39.062500
1253		48.828125
1254		41.015625
1255		50.781250
1256		44.921875
1257		50.781250
1258		48.828125
1259		52.734375
1260		48.828125
1261		56.640625
1262		48.828125
1263		58.593750
1264		50.781250
1265		58.593750
1266		52.734375
1267		60.546875
1268		54.687500
1269		62.500000
1270		54.687500
1271		64.453125
1272		56.640625
1273		64.453125
1274		60.546875
1275		64.453125
1276		60.546875
1277		64.453125
1278		60.546875
1279		68.359375
1280		60.546875
1281		68.359375
1282		60.546875
1283		68.359375
1284		60.546875
1285		68.359375
1286		60.546875
1287		68.359375
1288		62.500000
1289		68.359375
1290		62.500000
1291		68.359375
1292		64.453125
1293		66.406250
1294		62.500000
1295		68.359375
1296		60.546875
1297		68.359375
1298		60.546875
1299		68.359375
1300		60.546875
1301		66.406250
1302		58.593750
1303		66.406250
1304		58.593750
1305		64.453125
1306		56.640625
1307		64.453125
1308		58.593750
1309		60.546875
1310		56.640625
1311		60.546875
1312		52.734375
1313		60.546875
1314		50.781250
1315		58.593750
1316		50.781250
1317		56.640625
1318		48.828125
1319		56.640625
1320		46.875000
1321		54.687500
1322		42.968750
1323		52.734375
1324		44.921875
1325		48.828125
1326		41.015625
1327		46.875000
1328		37.109375
1329		44.921875
1330		35.156250
1331		42.968750
1332		33.203125
1333		41.015625
1334		31.250000
1335		39.062500
1336		27.343750
1337		37.109375
1338		25.390625
1339		33.203125
1340		23.437500
1341		31.250000
1342		21.484375
1343		25.390625
1344		15.625000
1345		23.437500
1346		13.671875
1347		23.437500
1348		11.718750
1349		19.531250
1350		7.812500
1351		17.578125
1352		5.859375
1353		13.671875
1354		1.953125
1355		11.718750
1356		0.000000
1357		7.812500
1358		-1.953125
1359		3.906250
1360		-3.906250
1361		0.000000
1362		-7.812500
1363		-1.953125
1364		-11.718750
1365		-1.953125
1366		-15.625000
1367		-5.859375
1368		-17.578125
1369		-9.765625
1370		-19.531250
1371		-11.718750
1372		-23.437500
1373		-13.671875
1374		-23.437500
1375		-17.578125
1376		-25.390625
1377		-21.484375
1378		-31.250000
1379		-23.437500
1380		-33.203125
1381		-23.437500
1382		-35.156250
1383		-25.390625
1384		-37.109375
1385		-29.296875
1386		-39.062500
1387		-31.250000
1388		-41.015625
1389		-33.203125
1390		-41.015625
1391		-35.156250
1392		-41.015625
1393		-39.062500
1394		-42.968750
1395		-41.015625
1396		-46.875000
1397		-39.062500
1398		-48.828125
1399		-41.015625
1400		-50.781250
1401		-42.968750
1402		-50.781250
1403		-42.968750
1404		-50.781250
1405		-44.921875
1406		-52.734375
1407		-44.921875
1408		-50.781250
1409		-46.875000
1410		-50.781250
1411		-48.828125
1412		-54.687500
1413		-46.875000
1414		-52.734375
1415		-46.875000
1416		-52.734375
1417		-46.875000
1418		-52.734375
1419		-44.921875
1420		-52.734375
1421		-44.921875
1422		-52.734375
1423		-44.921875
1424		-52.734375
1425		-44.921875
1426		-48.828125
1427		-46.875000
1428		-48.828125
1429		-44.921875
1430		-50.781250
1431		-41.015625
1432		-48.828125
1433		-41.015625
1434		-46.875000
1435		-39.062500
1436		-44.921875
1437		-37.109375
1438		-42.968750
1439		-35.156250
1440		-42.968750
1441		-35.156250
1442		-39.062500
1443		-33.203125
1444		-37.109375
1445		-31.250000
1446		-35.156250
1447		-27.343750
1448		-35.156250
1449		-25.390625
1450		-33.203125
1451		-23.437500
1452		-29.296875
1453		-21.484375
1454		-27.343750
1455		-17.578125
1456		-25.390625
1457		-15.625000
1458		-21.484375
1459		-15.625000
1460		-17.578125
1461		-11.718750
1462		-15.625000
1463		-7.812500
1464		-13.671875
1465		-3.906250
1466		-11.718750
1467		-1.953125
1468		-7.812500
1469		0.000000
1470		-5.859375
1471		3.906250
1472		-1.953125
1473		5.859375
1474		0.000000
1475		7.812500
1476		5.859375
1477		9.765625
1478		7.812500
1479		13.671875
1480		9.765625
1481		17.578125
1482		11.718750
1483		21.484375
1484		13.671875
1485		23.437500
1486		17.578125
1487		27.343750
1488		21.484375
1489		29.296875
1490		23.437500
1491		31.250000
1492		25.390625
1493		33.203125
1494		31.250000
1495		35.156250
1496		31.250000
1497		39.062500
1498		33.203125
1499		41.015625
1500		35.156250
1501		42.968750
1502		37.109375
1503		46.875000
1504		41.015625
1505		48.828125
1506		41.015625
1507		50.781250
1508		44.921875
1509		50.781250
1510		48.828125
1511		52.734375
1512		50.781250
1513		56.640625
1514		50.781250
1515		56.640625
1516		50.781250
1517		58.593750
1518		52.734375
1519		60.546875
1520		54.687500
1521		62.500000
1522		54.687500
1523		62.500000
1524		56.640625
1525		64.453125
1526		60.546875
1527		62.500000
1528		60.546875
1529		64.453125
1530		60.546875
1531		66.406250
1532		60.546875
1533		68.359375
1534		60.546875
1535		68.359375
1536		60.546875
1537		68.359375
1538		60.546875
1539		68.359375
1540		62.500000
1541		70.312500
1542		62.500000
1543		68.359375
1544		64.453125
1545		66.406250
1546		62.500000
1547		68.359375
1548		60.546875
1549		68.359375
1550		60.546875
1551		68.359375
1552		58.593750
1553		66.406250
1554		58.593750
1555		66.406250
1556		56.640625
1557		64.453125
1558		56.640625
1559		64.453125
1560		56.640625
1561		60.546875
1562		54.687500
1563		60.546875
1564		52.734375
1565		60.546875
1566		52.734375
1567		58.593750
1568		48.828125
1569		56.640625
1570		46.875000
1571		56.640625
1572		44.921875
1573		54.687500
1574		44.921875
1575		50.781250
1576		42.968750
1577		48.828125
1578		41.015625
1579		44.921875
1580		37.109375
1581		42.968750
1582		35.156250
1583		42.968750
1584		33.203125
1585		41.015625
1586		31.250000
1587		39.062500
1588		27.343750
1589		35.156250
1590		25.390625
1591		33.203125
1592		23.437500
1593		31.250000
1594		21.484375
1595		25.390625
1596		17.578125
1597		23.437500
1598		13.671875
1599		21.484375
1600		9.765625
1601		19.531250
1602		7.812500
1603		15.625000
1604		3.906250
1605		13.671875
1606		1.953125
1607		11.718750
1608		-1.953125
1609		7.812500
1610		-1.953125
1611		3.906250
1612		-3.906250
1613		0.000000
1614		-9.765625
1615		-1.953125
1616		-11.718750
1617		-3.906250
1618		-13.671875
1619		-5.859375
1620		-17.578125
1621		-7.812500
1622		-21.484375
1623		-11.718750
1624		-23.437500
1625		-15.625000
1626		-23.437500
1627		-17.578125
1628		-25.390625
1629		-21.484375
1630		-31.250000
1631		-23.437500
1632		-33.203125
1633		-23.437500
1634		-35.156250
1635		-27.343750
1636		-39.062500
1637		-29.296875
1638		-41.015625
1639		-31.250000
1640		-41.015625
1641		-33.203125
1642		-42.968750
1643		-35.156250
1644		-42.968750
1645		-39.062500
1646		-42.968750
1647		-41.015625
1648		-46.875000
1649		-41.015625
1650		-48.828125
1651		-41.015625
1652		-50.781250
1653		-42.968750
1654		-50.781250
1655		-42.968750
1656		-52.734375
1657		-44.921875
1658		-52.734375
1659		-44.921875
1660		-52.734375
1661		-46.875000
1662		-50.781250
1663		-48.828125
1664		-52.734375
1665		-46.875000
1666		-52.734375
1667		-46.875000
1668		-54.687500
1669		-46.875000
1670		-52.734375
1671		-46.875000
1672		-52.734375
1673		-44.921875
1674		-52.734375
1675		-44.921875
1676		-50.781250
1677		-44.921875
1678		-48.828125
1679		-44.921875
1680		-48.828125
1681		-42.968750
1682		-48.828125
1683		-41.015625
1684		-46.875000
1685		-41.015625
1686		-46.875000
1687		-39.062500
1688		-44.921875
1689		-37.109375
1690		-42.968750
1691		-35.156250
1692		-41.015625
1693		-33.203125
1694		-37.109375
1695		-33.203125
1696		-35.156250
1697		-31.250000
1698		-33.203125
1699		-27.343750
1700		-33.203125
1701		-25.390625
1702		-31.250000
1703		-23.437500
1704		-29.296875
1705		-19.531250
1706		-27.343750
1707		-17.578125
1708		-23.437500
1709		-15.625000
1710		-21.484375
1711		-15.625000
1712		-15.625000
1713		-11.718750
1714		-13.671875
1715		-5.859375
1716		-13.671875
1717		-3.906250
1718		-11.718750
1719		-1.953125
1720		-5.859375
1721		1.953125
1722		-3.906250
1723		3.906250
1724		-1.953125
1725		7.812500
1726		1.953125
1727		9.765625
1728		5.859375
1729		9.765625
1730		9.765625
1731		13.671875
1732		11.718750
1733		17.578125
1734		13.671875
1735		21.484375
1736		17.578125
1737		23.437500
1738		19.531250
1739		25.390625
1740		21.484375
1741		29.296875
1742		25.390625
1743		31.250000
1744		29.296875
1745		33.203125
1746		31.250000
1747		35.156250
1748		33.203125
1749		41.015625
1750		33.203125
1751		42.968750
1752		37.109375
1753		42.968750
1754		41.015625
1755		44.921875
1756		41.015625
1757		48.828125
1758		44.921875
1759		50.781250
1760		44.921875
1761		52.734375
1762		48.828125
1763		52.734375
1764		50.781250
1765		54.687500
1766		50.781250
1767		58.593750
1768		52.734375
1769		58.593750
1770		54.687500
1771		58.593750
1772		56.640625
1773		62.500000
1774		58.593750
1775		62.500000
1776		56.640625
1777		64.453125
1778		60.546875
1779		64.453125
1780		62.500000
1781		64.453125
1782		60.546875
1783		66.406250
1784		60.546875
1785		68.359375
1786		62.500000
1787		66.406250
1788		64.453125
1789		66.406250
1790		64.453125
1791		66.406250
1792		64.453125
1793		66.406250
1794		62.500000
1795		66.406250
1796		62.500000
1797		66.406250
1798		60.546875
1799		66.406250
1800		60.546875
1801		68.359375
1802		60.546875
1803		66.406250
1804		60.546875
1805		64.453125
1806		60.546875
1807		64.453125
1808		58.593750
1809		62.500000
1810		58.593750
1811		62.500000
1812		56.640625
1813		60.546875
1814		56.640625
1815		58.593750
1816		54.687500
1817		58.593750
1818		52.734375
1819		56.640625
1820		50.781250
1821		54.687500
1822		48.828125
1823		52.734375
1824		46.875000
1825		50.781250
1826		44.921875
1827		48.828125
1828		42.968750
1829		46.875000
1830		41.015625
1831		44.921875
1832		39.062500
1833		42.968750
1834		37.109375
1835		41.015625
1836		33.203125
1837		39.062500
1838		31.250000
1839		35.156250
1840		29.296875
1841		33.203125
1842		25.390625
1843		29.296875
1844		23.437500
1845		27.343750
1846		19.531250
1847		25.390625
1848		17.578125
1849		21.484375
1850		13.671875
1851		19.531250
1852		11.718750
1853		17.578125
1854		9.765625
1855		13.671875
1856		5.859375
1857		9.765625
1858		1.953125
1859		7.812500
1860		-1.953125
1861		3.906250
1862		-3.906250
1863		1.953125
1864		-5.859375
1865		-1.953125
1866		-9.765625
1867		-3.906250
1868		-11.718750
1869		-7.812500
1870		-15.625000
1871		-9.765625
1872		-17.578125
1873		-11.718750
1874		-19.531250
1875		-15.625000
1876		-23.437500
1877		-17.578125
1878		-25.390625
1879		-19.531250
1880		-27.343750
1881		-23.437500
1882		-31.250000
1883		-25.390625
1884		-31.250000
1885		-27.343750
1886		-35.156250
1887		-29.296875
1888		-35.156250
1889		-31.250000
1890		-39.062500
1891		-35.156250
1892		-41.015625
1893		-37.109375
1894		-42.968750
1895		-37.109375
1896		-42.968750
1897		-41.015625
1898		-44.921875
1899		-41.015625
1900		-46.875000
1901		-41.015625
1902		-46.875000
1903		-42.968750
1904		-48.828125
1905		-44.921875
1906		-48.828125
1907		-44.921875
1908		-50.781250
1909		-46.875000
1910		-52.734375
1911		-46.875000
1912		-52.734375
1913		-46.875000
1914		-50.781250
1915		-48.828125
1916		-52.734375
1917		-48.828125
1918		-52.734375
1919		-48.828125
1920		-52.734375
1921		-48.828125
1922		-52.734375
1923		-48.828125
1924		-50.781250
1925		-46.875000
1926		-50.781250
1927		-46.875000
1928		-50.781250
1929		-46.875000
1930		-48.828125
1931		-46.875000
1932		-48.828125
1933		-44.921875
1934		-46.875000
1935		-42.968750
1936		-46.875000
1937		-42.968750
1938		-44.921875
1939		-41.015625
1940		-42.968750
1941		-39.062500
1942		-41.015625
1943		-37.109375
1944		-39.062500
1945		-35.156250
1946		-37.109375
1947		-33.203125
1948		-35.156250
1949		-31.250000
1950		-33.203125
1951		-29.296875
1952		-31.250000
1953		-27.343750
1954		-29.296875
1955		-25.390625
1956		-27.343750
1957		-21.484375
1958		-25.390625
1959		-19.531250
1960		-21.484375
1961		-17.578125
1962		-19.531250
1963		-13.671875
1964		-15.625000
1965		-11.718750
1966		-13.671875
1967		-7.812500
1968		-11.718750
1969		-5.859375
1970		-9.765625
1971		-3.906250
1972		-5.859375
1973		0.000000
1974		-1.953125
1975		1.953125
1976		0.000000
1977		5.859375
1978		3.906250
1979		9.765625
1980		5.859375
1981		11.718750
1982		9.765625
1983		13.671875
1984		11.718750
1985		17.578125
1986		15.625000
1987		19.531250
1988		17.578125
1989		21.484375
1990		21.484375
1991		25.390625
1992		21.484375
1993		27.343750
1994		25.390625
1995		31.250000
1996		27.343750
1997		33.203125
1998		31.250000
1999		35.156250
2000		33.203125
2001		39.062500
2002		37.109375
2003		41.015625
2004		39.062500
2005		42.968750
2006		41.015625
2007		44.921875
2008		42.968750
2009		46.875000
2010		44.921875
2011		48.828125
2012		46.875000
2013		50.781250
2014		48.828125
2015		52.734375
2016		48.828125
2017		54.687500
2018		50.781250
2019		56.640625
2020		54.687500
2021		58.593750
2022		56.640625
2023		58.593750
2024		56.640625
2025		60.546875
2026		58.593750
2027		62.500000
2028		58.593750
2029		62.500000
2030		58.593750
2031		62.500000
2032		60.546875
2033		64.453125
2034		60.546875
2035		64.453125
2036		62.500000
2037		66.406250
2038		62.500000
2039		66.406250
2040		62.500000
2041		66.406250
2042		62.500000
2043		66.406250
2044		62.500000
2045		66.406250
2046		62.500000
2047		66.406250
2048		62.500000
2049		66.406250
2050		62.500000
2051		66.406250
2052		62.500000
2053		64.453125
2054		60.546875
2055		64.453125
2056		60.546875
2057		64.453125
2058		60.546875
2059		62.500000
2060		58.593750
2061		62.500000
2062		56.640625
2063		60.546875
2064		56.640625
2065		60.546875
2066		54.687500
2067		58.593750
2068		52.734375
2069		56.640625
2070		50.781250
2071		54.687500
2072		48.828125
2073		52.734375
2074		48.828125
2075		52.734375
2076		46.875000
2077		50.781250
2078		44.921875
2079		48.828125
2080		42.968750
2081		46.875000
2082		41.015625
2083		42.968750
2084		37.109375
2085		41.015625
2086		35.156250
2087		39.062500
2088		33.203125
2089		37.109375
2090		29.296875
2091		35.156250
2092		27.343750
2093		31.250000
2094		23.437500
2095		29.296875
2096		21.484375
2097		27.343750
2098		19.531250
2099		23.437500
2100		15.625000
2101		21.484375
2102		13.671875
2103		19.531250
2104		9.765625
2105		15.625000
2106		7.812500
2107		11.718750
2108		3.906250
2109		9.765625
2110		1.953125
2111		5.859375
2112		-1.953125
2113		3.906250
2114		-3.906250
2115		1.953125
2116		-7.812500
2117		-1.953125
2118		-9.765625
2119		-5.859375
2120		-11.718750
2121		-7.812500
2122		-15.625000
2123		-9.765625
2124		-19.531250
2125		-13.671875
2126		-21.484375
2127		-15.625000
2128		-23.437500
2129		-19.531250
2130		-25.390625
2131		-21.484375
2132		-27.343750
2133		-25.390625
2134		-31.250000
2135		-27.343750
2136		-33.203125
2137		-29.296875
2138		-35.156250
2139		-31.250000
2140		-37.109375
2141		-33.203125
2142		-39.062500
2143		-35.156250
2144		-41.015625
2145		-37.109375
2146		-42.968750
2147		-39.062500
2148		-44.921875
2149		-41.015625
2150		-44.921875
2151		-42.968750
2152		-46.875000
2153		-42.968750
2154		-48.828125
2155		-44.921875
2156		-48.828125
2157		-46.875000
2158		-50.781250
2159		-46.875000
2160		-50.781250
2161		-46.875000
2162		-52.734375
2163		-48.828125
2164		-52.734375
2165		-48.828125
2166		-52.734375
2167		-48.828125
2168		-52.734375
2169		-48.828125
2170		-52.734375
2171		-48.828125
2172		-52.734375
2173		-48.828125
2174		-52.734375
2175		-48.828125
2176		-52.734375
2177		-46.875000
2178		-50.781250
2179		-48.828125
2180		-50.781250
2181		-46.875000
2182		-48.828125
2183		-46.875000
2184		-48.828125
2185		-44.921875
2186		-48.828125
2187		-42.968750
2188		-46.875000
2189		-42.968750
2190		-44.921875
2191		-41.015625
2192		-42.968750
2193		-39.062500
2194		-41.015625
2195		-37.109375
2196		-41.015625
2197		-35.156250
2198		-39.062500
2199		-33.203125
2200		-35.156250
2201		-31.250000
2202		-33.203125
2203		-29.296875
2204		-31.250000
2205		-27.343750
2206		-29.296875
2207		-25.390625
2208		-27.343750
2209		-21.484375
2210		-23.437500
2211		-19.531250
2212		-21.484375
2213		-17.578125
2214		-19.531250
2215		-13.671875
2216		-15.625000
2217		-11.718750
2218		-13.671875
2219		-7.812500
2220		-11.718750
2221		-5.859375
2222		-7.812500
2223		-3.906250
2224		-5.859375
2225		0.000000
2226		-1.953125
2227		1.953125
2228		0.000000
2229		5.859375
2230		3.906250
2231		9.765625
2232		5.859375
2233		11.718750
2234		9.765625
2235		13.671875
2236		11.718750
2237		17.578125
2238		15.625000
2239		19.531250
2240		17.578125
2241		23.437500
2242		21.484375
2243		25.390625
2244		23.437500
2245		29.296875
2246		27.343750
2247		31.250000
2248		27.343750
2249		33.203125
2250		31.250000
2251		35.156250
2252		33.203125
2253		39.062500
2254		37.109375
2255		41.015625
2256		39.062500
2257		42.968750
2258		41.015625
2259		44.921875
2260		42.968750
2261		46.875000
2262		44.921875
2263		48.828125
2264		46.875000
2265		50.781250
2266		48.828125
2267		52.734375
2268		50.781250
2269		54.687500
2270		52.734375
2271		56.640625
2272		52.734375
2273		58.593750
2274		54.687500
2275		58.593750
2276		56.640625
2277		60.546875
2278		58.593750
2279		60.546875
2280		58.593750
2281		62.500000
2282		60.546875
2283		64.453125
2284		60.546875
2285		64.453125
2286		60.546875
2287		64.453125
2288		60.546875
2289		66.406250
2290		62.500000
2291		66.406250
2292		62.500000
2293		66.406250
2294		62.500000
2295		66.406250
2296		62.500000
2297		66.406250
2298		62.500000
2299		66.406250
2300		62.500000
2301		66.406250
2302		60.546875
2303		64.453125
2304		62.500000
2305		64.453125
2306		60.546875
2307		64.453125
2308		58.593750
2309		64.453125
2310		60.546875
2311		62.500000
2312		58.593750
2313		62.500000
2314		56.640625
2315		60.546875
2316		56.640625
2317		58.593750
2318		54.687500
2319		58.593750
2320		52.734375
2321		56.640625
2322		50.781250
2323		54.687500
2324		48.828125
2325		52.734375
2326		46.875000
2327		50.781250
2328		44.921875
2329		48.828125
2330		42.968750
2331		46.875000
2332		41.015625
2333		46.875000
2334		39.062500
2335		42.968750
2336		37.109375
2337		41.015625
2338		33.203125
2339		39.062500
2340		31.250000
2341		37.109375
2342		29.296875
2343		33.203125
2344		27.343750
2345		31.250000
2346		23.437500
2347		27.343750
2348		21.484375
2349		25.390625
2350		17.578125
2351		23.437500
2352		15.625000
2353		19.531250
2354		11.718750
2355		17.578125
2356		9.765625
2357		15.625000
2358		7.812500
2359		11.718750
2360		3.906250
2361		7.812500
2362		0.000000
2363		5.859375
2364		-1.953125
2365		3.906250
2366		-3.906250
2367		0.000000
2368		-7.812500
2369		-3.906250
2370		-11.718750
2371		-5.859375
2372		-13.671875
2373		-9.765625
2374		-17.578125
2375		-11.718750
2376		-19.531250
2377		-13.671875
2378		-21.484375
2379		-17.578125
2380		-25.390625
2381		-19.531250
2382		-27.343750
2383		-21.484375
2384		-29.296875
2385		-25.390625
2386		-31.250000
2387		-27.343750
2388		-33.203125
2389		-29.296875
2390		-35.156250
2391		-31.250000
2392		-37.109375
2393		-33.203125
2394		-39.062500
2395		-35.156250
2396		-42.968750
2397		-37.109375
2398		-44.921875
2399		-39.062500
2400		-44.921875
2401		-41.015625
2402		-44.921875
2403		-42.968750
2404		-46.875000
2405		-44.921875
2406		-48.828125
2407		-44.921875
2408		-48.828125
2409		-44.921875
2410		-50.781250
2411		-46.875000
2412		-52.734375
2413		-48.828125
2414		-50.781250
2415		-48.828125
2416		-52.734375
2417		-48.828125
2418		-52.734375
2419		-48.828125
2420		-52.734375
2421		-48.828125
2422		-52.734375
2423		-48.828125
2424		-52.734375
2425		-48.828125
2426		-52.734375
2427		-48.828125
2428		-50.781250
2429		-48.828125
2430		-50.781250
2431		-46.875000
2432		-50.781250
2433		-46.875000
2434		-48.828125
2435		-46.875000
2436		-48.828125
2437		-44.921875
2438		-48.828125
2439		-42.968750
2440		-44.921875
2441		-42.968750
2442		-44.921875
2443		-41.015625
2444		-42.968750
2445		-39.062500
2446		-41.015625
2447		-37.109375
2448		-39.062500
2449		-35.156250
2450		-37.109375
2451		-33.203125
2452		-35.156250
2453		-31.250000
2454		-33.203125
2455		-29.296875
2456		-31.250000
2457		-27.343750
2458		-29.296875
2459		-23.437500
2460		-25.390625
2461		-21.484375
2462		-23.437500
2463		-19.531250
2464		-21.484375
2465		-15.625000
2466		-17.578125
2467		-13.671875
2468		-15.625000
2469		-11.718750
2470		-11.718750
2471		-7.812500
2472		-9.765625
2473		-5.859375
2474		-7.812500
2475		-1.953125
2476		-3.906250
2477		0.000000
2478		-1.953125
2479		3.906250
2480		1.953125
2481		5.859375
2482		3.906250
2483		9.765625
2484		7.812500
2485		11.718750
2486		9.765625
2487		13.671875
2488		13.671875
2489		17.578125
2490		15.625000
2491		19.531250
2492		19.531250
2493		23.437500
2494		21.484375
2495		25.390625
2496		23.437500
2497		29.296875
2498		27.343750
2499		31.250000
2500		29.296875
2501		33.203125
2502		33.203125
2503		37.109375
2504		35.156250
2505		39.062500
2506		37.109375
2507		41.015625
2508		39.062500
2509		42.968750
2510		41.015625
2511		44.921875
2512		42.968750
2513		48.828125
2514		46.875000
2515		50.781250
2516		46.875000
2517		50.781250
2518		48.828125
2519		52.734375
2520		50.781250
2521		54.687500
2522		52.734375
2523		56.640625
2524		54.687500
2525		58.593750
2526		54.687500
2527		58.593750
2528		56.640625
2529		60.546875
2530		58.593750
2531		62.500000
2532		58.593750
2533		62.500000
2534		58.593750
2535		64.453125
2536		60.546875
2537		64.453125
2538		62.500000
2539		64.453125
2540		62.500000
2541		66.406250
2542		62.500000
2543		66.406250
2544		62.500000
2545		66.406250
2546		62.500000
2547		66.406250
2548		62.500000
2549		66.406250
2550		62.500000
2551		66.406250
2552		62.500000
2553		66.406250
2554		62.500000
2555		64.453125
2556		60.546875
2557		64.453125
2558		60.546875
2559		64.453125
2560		60.546875
2561		62.500000
2562		58.593750
2563		62.500000
2564		56.640625
2565		62.500000
2566		56.640625
2567		60.546875
2568		56.640625
2569		58.593750
2570		54.687500
2571		56.640625
2572		52.734375
2573		56.640625
2574		50.781250
2575		54.687500
2576		48.828125
2577		52.734375
2578		46.875000
2579		50.781250
2580		44.921875
2581		48.828125
2582		42.968750
2583		46.875000
2584		41.015625
2585		44.921875
2586		37.109375
2587		42.968750
2588		35.156250
2589		41.015625
2590		33.203125
2591		39.062500
2592		31.250000
2593		35.156250
2594		27.343750
2595		33.203125
2596		25.390625
2597		31.250000
2598		23.437500
2599		27.343750
2600		19.531250
2601		25.390625
2602		17.578125
2603		21.484375
2604		15.625000
2605		19.531250
2606		11.718750
2607		17.578125
2608		9.765625
2609		13.671875
2610		5.859375
2611		11.718750
2612		3.906250
2613		7.812500
2614		0.000000
2615		5.859375
2616		-3.906250
2617		1.953125
2618		-5.859375
2619		0.000000
2620		-7.812500
2621		-3.906250
2622		-11.718750
2623		-5.859375
2624		-13.671875
2625		-9.765625
2626		-17.578125
2627		-11.718750
2628		-19.531250
2629		-13.671875
2630		-21.484375
2631		-17.578125
2632		-25.390625
2633		-19.531250
2634		-27.343750
2635		-23.437500
2636		-29.296875
2637		-25.390625
2638		-31.250000
2639		-27.343750
2640		-33.203125
2641		-29.296875
2642		-37.109375
2643		-31.250000
2644		-39.062500
2645		-35.156250
2646		-41.015625
2647		-37.109375
2648		-42.968750
2649		-37.109375
2650		-42.968750
2651		-39.062500
2652		-44.921875
2653		-41.015625
2654		-46.875000
2655		-42.968750
2656		-48.828125
2657		-42.968750
2658		-48.828125
2659		-44.921875
2660		-48.828125
2661		-44.921875
2662		-50.781250
2663		-46.875000
2664		-50.781250
2665		-48.828125
2666		-50.781250
2667		-48.828125
2668		-52.734375
2669		-48.828125
2670		-52.734375
2671		-48.828125
2672		-52.734375
2673		-48.828125
2674		-52.734375
2675		-48.828125
2676		-52.734375
2677		-48.828125
2678		-50.781250
2679		-48.828125
2680		-50.781250
2681		-46.875000
2682		-50.781250
2683		-46.875000
2684		-50.781250
2685		-44.921875
2686		-48.828125
2687		-44.921875
2688		-46.875000
2689		-44.921875
2690		-46.875000
2691		-42.968750
2692		-44.921875
2693		-41.015625
2694		-42.968750
2695		-39.062500
2696		-41.015625
2697		-39.062500
2698		-41.015625
2699		-37.109375
2700		-39.062500
2701		-35.156250
2702		-37.109375
2703		-31.250000
2704		-35.156250
2705		-31.250000
2706		-31.250000
2707		-27.343750
2708		-29.296875
2709		-25.390625
2710		-27.343750
2711		-23.437500
2712		-25.390625
2713		-19.531250
2714		-23.437500
2715		-17.578125
2716		-19.531250
2717		-15.625000
2718		-17.578125
2719		-11.718750
2720		-13.671875
2721		-9.765625
2722		-11.718750
2723		-7.812500
2724		-9.765625
2725		-3.906250
2726		-5.859375
2727		-1.953125
2728		-3.906250
2729		1.953125
2730		0.000000
2731		3.906250
2732		1.953125
2733		7.812500
2734		5.859375
2735		9.765625
2736		7.812500
2737		11.718750
2738		11.718750
2739		15.625000
2740		13.671875
2741		19.531250
2742		17.578125
2743		21.484375
2744		19.531250
2745		23.437500
2746		21.484375
2747		27.343750
2748		25.390625
2749		29.296875
2750		27.343750
2751		33.203125
2752		31.250000
2753		35.156250
2754		33.203125
2755		37.109375
2756		35.156250
2757		41.015625
2758		37.109375
2759		42.968750
2760		39.062500
2761		44.921875
2762		41.015625
2763		46.875000
2764		44.921875
2765		48.828125
2766		44.921875
2767		50.781250
2768		48.828125
2769		52.734375
2770		50.781250
2771		54.687500
2772		52.734375
2773		54.687500
2774		52.734375
2775		58.593750
2776		54.687500
2777		58.593750
2778		56.640625
2779		60.546875
2780		58.593750
2781		60.546875
2782		58.593750
2783		62.500000
2784		58.593750
2785		64.453125
2786		60.546875
2787		64.453125
2788		62.500000
2789		64.453125
2790		60.546875
2791		66.406250
2792		62.500000
2793		66.406250
2794		62.500000
2795		66.406250
2796		64.453125
2797		66.406250
2798		62.500000
2799		66.406250
2800		62.500000
2801		66.406250
2802		62.500000
2803		66.406250
2804		62.500000
2805		66.406250
2806		62.500000
2807		64.453125
2808		60.546875
2809		66.406250
2810		60.546875
2811		64.453125
2812		60.546875
2813		64.453125
2814		58.593750
2815		62.500000
2816		58.593750
2817		60.546875
2818		56.640625
2819		60.546875
2820		54.687500
2821		60.546875
2822		54.687500
2823		58.593750
2824		52.734375
2825		56.640625
2826		50.781250
2827		54.687500
2828		48.828125
2829		52.734375
2830		46.875000
2831		50.781250
2832		44.921875
2833		48.828125
2834		42.968750
2835		46.875000
2836		41.015625
2837		44.921875
2838		39.062500
2839		42.968750
2840		35.156250
2841		41.015625
2842		33.203125
2843		37.109375
2844		31.250000
2845		35.156250
2846		27.343750
2847		33.203125
2848		25.390625
2849		29.296875
2850		23.437500
2851		27.343750
2852		19.531250
2853		25.390625
2854		17.578125
2855		21.484375
2856		13.671875
2857		19.531250
2858		11.718750
2859		15.625000
2860		7.812500
2861		13.671875
2862		3.906250
2863		11.718750
2864		1.953125
2865		7.812500
2866		0.000000
2867		3.906250
2868		-3.906250
2869		1.953125
2870		-5.859375
2871		0.000000
2872		-7.812500
2873		-3.906250
2874		-11.718750
2875		-7.812500
2876		-13.671875
2877		-9.765625
2878		-17.578125
2879		-11.718750
2880		-19.531250
2881		-15.625000
2882		-21.484375
2883		-17.578125
2884		-25.390625
2885		-19.531250
2886		-27.343750
2887		-23.437500
2888		-29.296875
2889		-25.390625
2890		-31.250000
2891		-27.343750
2892		-33.203125
2893		-29.296875
2894		-37.109375
2895		-31.250000
2896		-39.062500
2897		-35.156250
2898		-41.015625
2899		-37.109375
2900		-42.968750
2901		-39.062500
2902		-44.921875
2903		-39.062500
2904		-44.921875
2905		-41.015625
2906		-46.875000
2907		-42.968750
2908		-48.828125
2909		-42.968750
2910		-48.828125
2911		-44.921875
2912		-50.781250
2913		-46.875000
2914		-50.781250
2915		-46.875000
2916		-50.781250
2917		-48.828125
2918		-52.734375
2919		-48.828125
2920		-52.734375
2921		-48.828125
2922		-50.781250
2923		-48.828125
2924		-52.734375
2925		-48.828125
2926		-52.734375
2927		-48.828125
2928		-52.734375
2929		-48.828125
2930		-50.781250
2931		-48.828125
2932		-50.781250
2933		-48.828125
2934		-50.781250
2935		-46.875000
2936		-50.781250
2937		-46.875000
2938		-48.828125
2939		-44.921875
2940		-46.875000
2941		-44.921875
2942		-46.875000
2943		-42.968750
2944		-44.921875
2945		-41.015625
2946		-44.921875
2947		-39.062500
2948		-41.015625
2949		-37.109375
2950		-39.062500
2951		-35.156250
2952		-37.109375
2953		-33.203125
2954		-37.109375
2955		-33.203125
2956		-33.203125
2957		-29.296875
2958		-31.250000
2959		-27.343750
2960		-29.296875
2961		-25.390625
2962		-27.343750
2963		-21.484375
2964		-23.437500
2965		-19.531250
2966		-21.484375
2967		-17.578125
2968		-19.531250
2969		-15.625000
2970		-17.578125
2971		-11.718750
2972		-13.671875
2973		-9.765625
2974		-11.718750
2975		-5.859375
2976		-9.765625
2977		-3.906250
2978		-5.859375
2979		0.000000
2980		-1.953125
2981		1.953125
2982		0.000000
2983		5.859375
2984		3.906250
2985		7.812500
2986		5.859375
2987		11.718750
2988		7.812500
2989		13.671875
2990		11.718750
2991		15.625000
2992		15.625000
2993		19.531250
2994		17.578125
2995		23.437500
2996		19.531250
2997		25.390625
2998		23.437500
2999		27.343750
3000		25.390625
3001		31.250000
3002		27.343750
3003		33.203125
3004		31.250000
3005		35.156250
3006		33.203125
3007		37.109375
3008		37.109375
3009		41.015625
3010		39.062500
3011		42.968750
3012		41.015625
3013		44.921875
3014		42.968750
3015		46.875000
3016		44.921875
3017		48.828125
3018		46.875000
3019		50.781250
3020		48.828125
3021		52.734375
3022		50.781250
3023		54.687500
3024		52.734375
3025		56.640625
3026		54.687500
3027		56.640625
3028		54.687500
3029		58.593750
3030		56.640625
3031		60.546875
3032		58.593750
3033		60.546875
3034		58.593750
3035		62.500000
3036		60.546875
3037		62.500000
3038		60.546875
3039		64.453125
3040		62.500000
3041		64.453125
3042		62.500000
3043		64.453125
3044		62.500000
3045		66.406250
3046		62.500000
3047		66.406250
3048		62.500000
3049		66.406250
3050		62.500000
3051		66.406250
3052		62.500000
3053		66.406250
3054		62.500000
3055		66.406250
3056		62.500000
3057		66.406250
3058		62.500000
3059		64.453125
3060		60.546875
3061		66.406250
3062		60.546875
3063		64.453125
3064		58.593750
3065		62.500000
3066		58.593750
3067		62.500000
3068		56.640625
3069		60.546875
3070		56.640625
3071		60.546875
3072		54.687500
3073		58.593750
3074		52.734375
3075		56.640625
3076		50.781250
3077		54.687500
3078		50.781250
3079		54.687500
3080		46.875000
3081		52.734375
3082		46.875000
3083		50.781250
3084		44.921875
3085		48.828125
3086		42.968750
3087		46.875000
3088		39.062500
3089		44.921875
3090		37.109375
3091		41.015625
3092		35.156250
3093		39.062500
3094		33.203125
3095		39.062500
3096		29.296875
3097		35.156250
3098		27.343750
3099		33.203125
3100		23.437500
3101		29.296875
3102		21.484375
3103		27.343750
3104		17.578125
3105		23.437500
3106		15.625000
3107		21.484375
3108		13.671875
3109		17.578125
3110		9.765625
3111		15.625000
3112		7.812500
3113		11.718750
3114		5.859375
3115		9.765625
3116		1.953125
3117		7.812500
3118		-1.953125
3119		3.906250
3120		-3.906250
3121		1.953125
3122		-5.859375
3123		-1.953125
3124		-9.765625
3125		-5.859375
3126		-13.671875
3127		-7.812500
3128		-15.625000
3129		-9.765625
3130		-17.578125
3131		-13.671875
3132		-21.484375
3133		-15.625000
3134		-23.437500
3135		-19.531250
3136		-25.390625
3137		-21.484375
3138		-29.296875
3139		-23.437500
3140		-31.250000
3141		-27.343750
3142		-33.203125
3143		-29.296875
3144		-35.156250
3145		-29.296875
3146		-37.109375
3147		-33.203125
3148		-39.062500
3149		-35.156250
3150		-41.015625
3151		-37.109375
3152		-42.968750
3153		-39.062500
3154		-44.921875
3155		-41.015625
3156		-44.921875
3157		-41.015625
3158		-46.875000
3159		-42.968750
3160		-48.828125
3161		-44.921875
3162		-48.828125
3163		-44.921875
3164		-50.781250
3165		-46.875000
3166		-50.781250
3167		-46.875000
3168		-50.781250
3169		-48.828125
3170		-52.734375
3171		-48.828125
3172		-52.734375
3173		-48.828125
3174		-52.734375
3175		-48.828125
3176		-52.734375
3177		-48.828125
3178		-52.734375
3179		-48.828125
3180		-52.734375
3181		-48.828125
3182		-52.734375
3183		-48.828125
3184		-50.781250
3185		-46.875000
3186		-50.781250
3187		-46.875000
3188		-50.781250
3189		-44.921875
3190		-48.828125
3191		-44.921875
3192		-46.875000
3193		-42.968750
3194		-46.875000
3195		-42.968750
3196		-44.921875
3197		-41.015625
3198		-42.968750
3199		-39.062500
3200		-41.015625
3201		-37.109375
3202		-39.062500
3203		-35.156250
3204		-37.109375
3205		-33.203125
3206		-35.156250
3207		-31.250000
3208		-33.203125
3209		-29.296875
3210		-31.250000
3211		-25.390625
3212		-29.296875
3213		-23.437500
3214		-27.343750
3215		-21.484375
3216		-23.437500
3217		-19.531250
3218		-21.484375
3219		-15.625000
3220		-19.531250
3221		-13.671875
3222		-15.625000
3223		-11.718750
3224		-13.671875
3225		-9.765625
3226		-11.718750
3227		-5.859375
3228		-7.812500
3229		-3.906250
3230		-5.859375
3231		0.000000
3232		-1.953125
3233		1.953125
3234		0.000000
3235		5.859375
3236		1.953125
3237		9.765625
3238		5.859375
3239		11.718750
3240		9.765625
3241		13.671875
3242		11.718750
3243		17.578125
3244		15.625000
3245		19.531250
3246		17.578125
3247		23.437500
3248		19.531250
3249		25.390625
3250		23.437500
3251		27.343750
3252		25.390625
3253		31.250000
3254		29.296875
3255		33.203125
3256		31.250000
3257		35.156250
3258		33.203125
3259		39.062500
3260		37.109375
3261		41.015625
3262		37.109375
3263		42.968750
3264		41.015625
3265		44.921875
3266		42.968750
3267		46.875000
3268		44.921875
3269		48.828125
3270		46.875000
3271		50.781250
3272		48.828125
3273		52.734375
3274		50.781250
3275		54.687500
3276		52.734375
3277		56.640625
3278		54.687500
3279		58.593750
3280		54.687500
3281		58.593750
3282		56.640625
3283		60.546875
3284		58.593750
3285		62.500000
3286		58.593750
3287		62.500000
3288		60.546875
3289		62.500000
3290		60.546875
3291		64.453125
3292		62.500000
3293		64.453125
3294		62.500000
3295		66.406250
3296		62.500000
3297		66.406250
3298		62.500000
3299		66.406250
3300		62.500000
3301		66.406250
3302		62.500000
3303		66.406250
3304		62.500000
3305		66.406250
3306		62.500000
3307		66.406250
3308		62.500000
3309		64.453125
3310		62.500000
3311		64.453125
3312		60.546875
3313		64.453125
3314		60.546875
3315		64.453125
3316		58.593750
3317		62.500000
3318		58.593750
3319		62.500000
3320		56.640625
3321		60.546875
3322		56.640625
3323		60.546875
3324		54.687500
3325		58.593750
3326		52.734375
3327		56.640625
3328		50.781250
3329		54.687500
3330		48.828125
3331		52.734375
3332		46.875000
3333		52.734375
3334		46.875000
3335		50.781250
3336		42.968750
3337		48.828125
3338		41.015625
3339		44.921875
3340		39.062500
3341		42.968750
3342		37.109375
3343		41.015625
3344		33.203125
3345		39.062500
3346		31.250000
3347		37.109375
3348		29.296875
3349		33.203125
3350		27.343750
3351		31.250000
3352		23.437500
3353		29.296875
3354		21.484375
3355		25.390625
3356		19.531250
3357		23.437500
3358		15.625000
3359		21.484375
3360		11.718750
3361		17.578125
3362		9.765625
3363		13.671875
3364		5.859375
3365		11.718750
3366		3.906250
3367		7.812500
3368		0.000000
3369		5.859375
3370		-1.953125
3371		1.953125
3372		-3.906250
3373		0.000000
3374		-7.812500
3375		-1.953125
3376		-9.765625
3377		-5.859375
3378		-13.671875
3379		-9.765625
3380		-15.625000
3381		-11.718750
3382		-19.531250
3383		-13.671875
3384		-21.484375
3385		-15.625000
3386		-23.437500
3387		-19.531250
3388		-27.343750
3389		-21.484375
3390		-29.296875
3391		-23.437500
3392		-31.250000
3393		-27.343750
3394		-33.203125
3395		-29.296875
3396		-35.156250
3397		-31.250000
3398		-37.109375
3399		-33.203125
3400		-41.015625
3401		-35.156250
3402		-41.015625
3403		-37.109375
3404		-42.968750
3405		-39.062500
3406		-44.921875
3407		-41.015625
3408		-46.875000
3409		-41.015625
3410		-46.875000
3411		-42.968750
3412		-48.828125
3413		-44.921875
3414		-48.828125
3415		-46.875000
3416		-50.781250
3417		-46.875000
3418		-50.781250
3419		-48.828125
3420		-50.781250
3421		-48.828125
3422		-50.781250
3423		-48.828125
3424		-52.734375
3425		-48.828125
3426		-52.734375
3427		-48.828125
3428		-52.734375
3429		-48.828125
3430		-52.734375
3431		-48.828125
3432		-52.734375
3433		-48.828125
3434		-50.781250
3435		-48.828125
3436		-50.781250
3437		-48.828125
3438		-50.781250
3439		-46.875000
3440		-48.828125
3441		-46.875000
3442		-48.828125
3443		-44.921875
3444		-46.875000
3445		-44.921875
3446		-44.921875
3447		-41.015625
3448		-44.921875
3449		-41.015625
3450		-42.968750
3451		-39.062500
3452		-41.015625
3453		-37.109375
3454		-39.062500
3455		-35.156250
3456		-37.109375
3457		-33.203125
3458		-35.156250
3459		-31.250000
3460		-33.203125
3461		-29.296875
3462		-31.250000
3463		-25.390625
3464		-29.296875
3465		-23.437500
3466		-25.390625
3467		-21.484375
3468		-23.437500
3469		-19.531250
3470		-21.484375
3471		-17.578125
3472		-19.531250
3473		-13.671875
3474		-15.625000
3475		-9.765625
3476		-13.671875
3477		-7.812500
3478		-9.765625
3479		-5.859375
3480		-7.812500
3481		-1.953125
3482		-3.906250
3483		0.000000
3484		-1.953125
3485		3.906250
3486		1.953125
3487		5.859375
3488		3.906250
3489		9.765625
3490		7.812500
3491		11.718750
3492		9.765625
3493		15.625000
3494		13.671875
3495		17.578125
3496		15.625000
3497		21.484375
3498		17.578125
3499		23.437500
3500		21.484375
3501		27.343750
3502		25.390625
3503		29.296875
3504		25.390625
3505		31.250000
3506		29.296875
3507		33.203125
3508		31.250000
3509		37.109375
3510		35.156250
3511		39.062500
3512		37.109375
3513		41.015625
3514		39.062500
3515		42.968750
3516		41.015625
3517		46.875000
3518		42.968750
3519		46.875000
3520		44.921875
3521		50.781250
3522		48.828125
3523		50.781250
3524		48.828125
3525		54.687500
3526		50.781250
3527		54.687500
3528		52.734375
3529		56.640625
3530		54.687500
3531		58.593750
3532		56.640625
3533		60.546875
3534		56.640625
3535		60.546875
3536		58.593750
3537		62.500000
3538		58.593750
3539		62.500000
3540		60.546875
3541		64.453125
3542		60.546875
3543		64.453125
3544		62.500000
3545		64.453125
3546		60.546875
3547		66.406250
3548		62.500000
3549		66.406250
3550		62.500000
3551		66.406250
3552		62.500000
3553		66.406250
3554		62.500000
3555		66.406250
3556		62.500000
3557		66.406250
3558		62.500000
3559		66.406250
3560		62.500000
3561		64.453125
3562		62.500000
3563		64.453125
3564		60.546875
3565		64.453125
3566		60.546875
3567		64.453125
3568		58.593750
3569		62.500000
3570		58.593750
3571		60.546875
3572		56.640625
3573		60.546875
3574		54.687500
3575		58.593750
3576		54.687500
3577		58.593750
3578		52.734375
3579		56.640625
3580		50.781250
3581		54.687500
3582		48.828125
3583		52.734375
3584		46.875000
3585		50.781250
3586		44.921875
3587		48.828125
3588		42.968750
3589		46.875000
3590		41.015625
3591		44.921875
3592		37.109375
3593		42.968750
3594		37.109375
3595		41.015625
3596		33.203125
3597		37.109375
3598		31.250000
3599		35.156250
3600		29.296875
3601		33.203125
3602		25.390625
3603		31.250000
3604		23.437500
3605		27.343750
3606		21.484375
3607		25.390625
3608		17.578125
3609		23.437500
3610		15.625000
3611		19.531250
3612		11.718750
3613		15.625000
3614		7.812500
3615		13.671875
3616		5.859375
3617		11.718750
3618		3.906250
3619		7.812500
3620		0.000000
3621		5.859375
3622		-1.953125
3623		1.953125
3624		-5.859375
3625		0.000000
3626		-7.812500
3627		-3.906250
3628		-11.718750
3629		-5.859375
3630		-13.671875
3631		-9.765625
3632		-15.625000
3633		-11.718750
3634		-19.531250
3635		-13.671875
3636		-21.484375
3637		-17.578125
3638		-25.390625
3639		-19.531250
3640		-27.343750
3641		-23.437500
3642		-31.250000
3643		-25.390625
3644		-31.250000
3645		-27.343750
3646		-33.203125
3647		-29.296875
3648		-35.156250
3649		-31.250000
3650		-37.109375
3651		-33.203125
3652		-41.015625
3653		-35.156250
3654		-42.968750
3655		-37.109375
3656		-42.968750
3657		-39.062500
3658		-44.921875
3659		-41.015625
3660		-46.875000
3661		-42.968750
3662		-46.875000
3663		-44.921875
3664		-48.828125
3665		-44.921875
3666		-50.781250
3667		-46.875000
3668		-50.781250
3669		-46.875000
3670		-50.781250
3671		-46.875000
3672		-52.734375
3673		-48.828125
3674		-52.734375
3675		-48.828125
3676		-52.734375
3677		-48.828125
3678		-52.734375
3679		-50.781250
3680		-52.734375
3681		-48.828125
3682		-52.734375
3683		-48.828125
3684		-52.734375
3685		-48.828125
3686		-52.734375
3687		-48.828125
3688		-50.781250
3689		-46.875000
3690		-50.781250
3691		-46.875000
3692		-48.828125
3693		-44.921875
3694		-48.828125
3695		-44.921875
3696		-46.875000
3697		-42.968750
3698		-44.921875
3699		-41.015625
3700		-44.921875
3701		-41.015625
3702		-42.968750
3703		-37.109375
3704		-41.015625
3705		-37.109375
3706		-39.062500
3707		-35.156250
3708		-37.109375
3709		-33.203125
3710		-35.156250
3711		-31.250000
3712		-33.203125
3713		-29.296875
3714		-29.296875
3715		-25.390625
3716		-27.343750
3717		-23.437500
3718		-25.390625
3719		-21.484375
3720		-23.437500
3721		-17.578125
3722		-19.531250
3723		-15.625000
3724		-17.578125
3725		-13.671875
3726		-15.625000
3727		-7.812500
3728		-11.718750
3729		-7.812500
3730		-9.765625
3731		-5.859375
3732		-5.859375
3733		-1.953125
3734		-3.906250
3735		1.953125
3736		0.000000
3737		3.906250
3738		1.953125
3739		5.859375
3740		5.859375
3741		9.765625
3742		7.812500
3743		11.718750
3744		11.718750
3745		15.625000
3746		13.671875
3747		17.578125
3748		17.578125
3749		21.484375
3750		19.531250
3751		25.390625
3752		21.484375
3753		27.343750
3754		23.437500
3755		29.296875
3756		27.343750
3757		31.250000
3758		31.250000
3759		35.156250
3760		33.203125
3761		37.109375
3762		35.156250
3763		39.062500
3764		37.109375
3765		41.015625
3766		39.062500
3767		44.921875
3768		41.015625
3769		46.875000
3770		42.968750
3771		48.828125
3772		46.875000
3773		50.781250
3774		48.828125
3775		52.734375
3776		48.828125
3777		54.687500
3778		50.781250
3779		54.687500
3780		52.734375
3781		56.640625
3782		54.687500
3783		58.593750
3784		56.640625
3785		58.593750
3786		56.640625
3787		62.500000
3788		58.593750
3789		62.500000
3790		58.593750
3791		62.500000
3792		60.546875
3793		64.453125
3794		60.546875
3795		64.453125
3796		62.500000
3797		64.453125
3798		62.500000
3799		64.453125
3800		62.500000
3801		66.406250
3802		62.500000
3803		66.406250
3804		62.500000
3805		66.406250
3806		62.500000
3807		66.406250
3808		62.500000
3809		66.406250
3810		62.500000
3811		66.406250
3812		62.500000
3813		66.406250
3814		62.500000
3815		64.453125
3816		60.546875
3817		64.453125
3818		58.593750
3819		62.500000
3820		58.593750
3821		62.500000
3822		58.593750
3823		62.500000
3824		56.640625
3825		60.546875
3826		54.687500
3827		58.593750
3828		54.687500
3829		58.593750
3830		52.734375
3831		56.640625
3832		48.828125
3833		54.687500
3834		48.828125
3835		52.734375
3836		46.875000
3837		50.781250
3838		44.921875
3839		48.828125
3840		42.968750
3841		46.875000
3842		39.062500
3843		44.921875
3844		37.109375
3845		42.968750
3846		35.156250
3847		39.062500
3848		33.203125
3849		37.109375
3850		31.250000
3851		35.156250
3852		27.343750
3853		33.203125
3854		25.390625
3855		31.250000
3856		23.437500
3857		27.343750
3858		19.531250
3859		25.390625
3860		15.625000
3861		21.484375
3862		13.671875
3863		19.531250
3864		11.718750
3865		15.625000
3866		7.812500
3867		13.671875
3868		5.859375
3869		9.765625
3870		1.953125
3871		7.812500
3872		0.000000
3873		3.906250
3874		-3.906250
3875		1.953125
3876		-7.812500
3877		-1.953125
3878		-9.765625
3879		-3.906250
3880		-11.718750
3881		-7.812500
3882		-13.671875
3883		-9.765625
3884		-17.578125
3885		-11.718750
3886		-21.484375
3887		-15.625000
3888		-21.484375
3889		-17.578125
3890		-25.390625
3891		-21.484375
3892		-27.343750
3893		-23.437500
3894		-29.296875
3895		-25.390625
3896		-31.250000
3897		-27.343750
3898		-35.156250
3899		-31.250000
3900		-37.109375
3901		-33.203125
3902		-39.062500
3903		-35.156250
3904		-41.015625
3905		-35.156250
3906		-41.015625
3907		-39.062500
3908		-42.968750
3909		-39.062500
3910		-44.921875
3911		-41.015625
3912		-46.875000
3913		-42.968750
3914		-46.875000
3915		-44.921875
3916		-50.781250
3917		-44.921875
3918		-50.781250
3919		-46.875000
3920		-50.781250
3921		-46.875000
3922		-52.734375
3923		-46.875000
3924		-50.781250
3925		-48.828125
3926		-52.734375
3927		-48.828125
3928		-52.734375
3929		-48.828125
3930		-52.734375
3931		-48.828125
3932		-52.734375
3933		-48.828125
3934		-52.734375
3935		-48.828125
3936		-52.734375
3937		-48.828125
3938		-50.781250
3939		-48.828125
3940		-50.781250
3941		-46.875000
3942		-50.781250
3943		-46.875000
3944		-48.828125
3945		-44.921875
3946		-46.875000
3947		-44.921875
3948		-46.875000
3949		-42.968750
3950		-44.921875
3951		-41.015625
3952		-42.968750
3953		-39.062500
3954		-42.968750
3955		-37.109375
3956		-41.015625
3957		-37.109375
3958		-39.062500
3959		-33.203125
3960		-37.109375
3961		-33.203125
3962		-35.156250
3963		-29.296875
3964		-31.250000
3965		-27.343750
3966		-29.296875
3967		-25.390625
3968		-29.296875
3969		-23.437500
3970		-25.390625
3971		-19.531250
3972		-21.484375
3973		-17.578125
3974		-19.531250
3975		-15.625000
3976		-17.578125
3977		-11.718750
3978		-13.671875
3979		-9.765625
3980		-11.718750
3981		-7.812500
3982		-7.812500
3983		-3.906250
3984		-5.859375
3985		-1.953125
3986		-3.906250
3987		1.953125
3988		0.000000
3989		5.859375
3990		3.906250
3991		7.812500
3992		5.859375
3993		9.765625
3994		7.812500
3995		13.671875
3996		11.718750
3997		15.625000
3998		15.625000
3999		19.531250
4000		17.578125
4001		23.437500
4002		19.531250
4003		25.390625
4004		23.437500
4005		27.343750
4006		25.390625
4007		29.296875
4008		29.296875
4009		33.203125
4010		31.250000
4011		35.156250
4012		33.203125
4013		39.062500
4014		35.156250
4015		41.015625
4016		37.109375
4017		42.968750
4018		39.062500
4019		44.921875
4020		42.968750
4021		46.875000
4022		44.921875
4023		48.828125
4024		46.875000
4025		50.781250
4026		48.828125
4027		52.734375
4028		50.781250
4029		54.687500
4030		52.734375
4031		56.640625
4032		54.687500
4033		56.640625
4034		54.687500
4035		60.546875
4036		56.640625
4037		60.546875
4038		58.593750
4039		62.500000
4040		58.593750
4041		62.500000
4042		60.546875
4043		64.453125
4044		60.546875
4045		64.453125
4046		60.546875
4047		64.453125
4048		62.500000
4049		64.453125
4050		62.500000
4051		64.453125
4052		62.500000
4053		66.406250
4054		62.500000
4055		66.406250
4056		62.500000
4057		66.406250
4058		62.500000
4059		66.406250
4060		62.500000
4061		66.406250
4062		62.500000
4063		66.406250
4064		60.546875
4065		66.406250
4066		62.500000
4067		64.453125
4068		60.546875
4069		64.453125
4070		60.546875
4071		62.500000
4072		58.593750
4073		62.500000
4074		58.593750
4075		60.546875
4076		56.640625
4077		60.546875
4078		54.687500
4079		58.593750
4080		52.734375
4081		58.593750
4082		52.734375
4083		54.687500
4084		48.828125
4085		54.687500
4086		48.828125
4087		52.734375
4088		46.875000
4089		50.781250
4090		42.968750
4091		48.828125
4092		42.968750
4093		46.875000
4094		39.062500
4095		44.921875
4096		37.109375
4097		41.015625
4098		35.156250
4099		39.062500
4100		33.203125
4101		37.109375
4102		29.296875
4103		35.156250
4104		27.343750
4105		31.250000
4106		25.390625
4107		29.296875
4108		21.484375
4109		27.343750
4110		19.531250
4111		25.390625
4112		17.578125
4113		21.484375
4114		13.671875
4115		19.531250
4116		11.718750
4117		15.625000
4118		7.812500
4119		11.718750
4120		5.859375
4121		9.765625
4122		1.953125
4123		5.859375
4124		0.000000
4125		3.906250
4126		-3.906250
4127		1.953125
4128		-5.859375
4129		-1.953125
4130		-9.765625
4131		-3.906250
4132		-11.718750
4133		-7.812500
4134		-15.625000
4135		-9.765625
4136		-19.531250
4137		-11.718750
4138		-21.484375
4139		-15.625000
4140		-23.437500
4141		-17.578125
4142		-25.390625
4143		-21.484375
4144		-29.296875
4145		-23.437500
4146		-31.250000
4147		-25.390625
4148		-33.203125
4149		-27.343750
4150		-35.156250
4151		-31.250000
4152		-37.109375
4153		-33.203125
4154		-41.015625
4155		-35.156250
4156		-41.015625
4157		-37.109375
4158		-42.968750
4159		-39.062500
4160		-42.968750
4161		-39.062500
4162		-46.875000
4163		-41.015625
4164		-46.875000
4165		-42.968750
4166		-46.875000
4167		-44.921875
4168		-50.781250
4169		-44.921875
4170		-50.781250
4171		-46.875000
4172		-50.781250
4173		-46.875000
4174		-52.734375
4175		-46.875000
4176		-52.734375
4177		-48.828125
4178		-52.734375
4179		-48.828125
4180		-52.734375
4181		-48.828125
4182		-52.734375
4183		-48.828125
4184		-52.734375
4185		-48.828125
4186		-52.734375
4187		-48.828125
4188		-52.734375
4189		-46.875000
4190		-52.734375
4191		-46.875000
4192		-50.781250
4193		-46.875000
4194		-50.781250
4195		-44.921875
4196		-50.781250
4197		-44.921875
4198		-48.828125
4199		-42.968750
4200		-46.875000
4201		-42.968750
4202		-44.921875
4203		-41.015625
4204		-42.968750
4205		-39.062500
4206		-42.968750
4207		-37.109375
4208		-41.015625
4209		-35.156250
4210		-39.062500
4211		-33.203125
4212		-37.109375
4213		-31.250000
4214		-35.156250
4215		-29.296875
4216		-31.250000
4217		-27.343750
4218		-29.296875
4219		-25.390625
4220		-27.343750
4221		-21.484375
4222		-25.390625
4223		-19.531250
4224		-23.437500
4225		-15.625000
4226		-19.531250
4227		-13.671875
4228		-17.578125
4229		-9.765625
4230		-13.671875
4231		-7.812500
4232		-11.718750
4233		-5.859375
4234		-7.812500
4235		-3.906250
4236		-5.859375
4237		0.000000
4238		-1.953125
4239		3.906250
4240		0.000000
4241		5.859375
4242		1.953125
4243		7.812500
4244		5.859375
4245		11.718750
4246		7.812500
4247		15.625000
4248		11.718750
4249		17.578125
4250		15.625000
4251		19.531250
4252		17.578125
4253		23.437500
4254		21.484375
4255		25.390625
4256		23.437500
4257		27.343750
4258		25.390625
4259		31.250000
4260		29.296875
4261		33.203125
4262		31.250000
4263		35.156250
4264		33.203125
4265		39.062500
4266		37.109375
4267		41.015625
4268		39.062500
4269		42.968750
4270		41.015625
4271		44.921875
4272		42.968750
4273		46.875000
4274		44.921875
4275		48.828125
4276		46.875000
4277		50.781250
4278		48.828125
4279		52.734375
4280		50.781250
4281		54.687500
4282		50.781250
4283		56.640625
4284		54.687500
4285		56.640625
4286		56.640625
4287		58.593750
4288		56.640625
4289		60.546875
4290		58.593750
4291		60.546875
4292		58.593750
4293		62.500000
4294		60.546875
4295		62.500000
4296		60.546875
4297		64.453125
4298		62.500000
4299		64.453125
4300		62.500000
4301		66.406250
4302		62.500000
4303		66.406250
4304		62.500000
4305		66.406250
4306		64.453125
4307		66.406250
4308		62.500000
4309		66.406250
4310		64.453125
4311		66.406250
4312		62.500000
4313		66.406250
4314		62.500000
4315		66.406250
4316		62.500000
4317		64.453125
4318		60.546875
4319		64.453125
4320		60.546875
4321		62.500000
4322		60.546875
4323		62.500000
4324		58.593750
4325		62.500000
4326		58.593750
4327		60.546875
4328		56.640625
4329		58.593750
4330		54.687500
4331		58.593750
4332		52.734375
4333		56.640625
4334		52.734375
4335		54.687500
4336		48.828125
4337		52.734375
4338		48.828125
4339		50.781250
4340		46.875000
4341		48.828125
4342		44.921875
4343		46.875000
4344		41.015625
4345		44.921875
4346		39.062500
4347		42.968750
4348		37.109375
4349		41.015625
4350		35.156250
4351		39.062500
4352		33.203125
4353		37.109375
4354		27.343750
4355		35.156250
4356		25.390625
4357		35.156250
4358		21.484375
4359		31.250000
4360		21.484375
4361		27.343750
4362		19.531250
4363		23.437500
4364		15.625000
4365		19.531250
4366		13.671875
4367		17.578125
4368		9.765625
4369		15.625000
4370		3.906250
4371		13.671875
4372		1.953125
4373		11.718750
4374		-1.953125
4375		9.765625
4376		-1.953125
4377		5.859375
4378		-3.906250
4379		0.000000
4380		-7.812500
4381		-1.953125
4382		-9.765625
4383		-5.859375
4384		-11.718750
4385		-7.812500
4386		-15.625000
4387		-11.718750
4388		-19.531250
4389		-11.718750
4390		-23.437500
4391		-13.671875
4392		-25.390625
4393		-15.625000
4394		-27.343750
4395		-21.484375
4396		-29.296875
4397		-25.390625
4398		-31.250000
4399		-27.343750
4400		-33.203125
4401		-29.296875
4402		-35.156250
4403		-31.250000
4404		-41.015625
4405		-31.250000
4406		-42.968750
4407		-33.203125
4408		-44.921875
4409		-33.203125
4410		-44.921875
4411		-35.156250
4412		-44.921875
4413		-41.015625
4414		-44.921875
4415		-42.968750
4416		-46.875000
4417		-42.968750
4418		-48.828125
4419		-44.921875
4420		-48.828125
4421		-46.875000
4422		-52.734375
4423		-42.968750
4424		-54.687500
4425		-44.921875
4426		-54.687500
4427		-44.921875
4428		-50.781250
4429		-48.828125
4430		-52.734375
4431		-48.828125
4432		-52.734375
4433		-48.828125
4434		-52.734375
4435		-48.828125
4436		-50.781250
4437		-48.828125
4438		-54.687500
4439		-44.921875
4440		-54.687500
4441		-44.921875
4442		-54.687500
4443		-44.921875
4444		-48.828125
4445		-46.875000
4446		-48.828125
4447		-46.875000
4448		-48.828125
4449		-44.921875
4450		-46.875000
4451		-42.968750
4452		-44.921875
4453		-42.968750
4454		-46.875000
4455		-35.156250
4456		-46.875000
4457		-35.156250
4458		-44.921875
4459		-35.156250
4460		-42.968750
4461		-33.203125
4462		-37.109375
4463		-33.203125
4464		-35.156250
4465		-31.250000
4466		-33.203125
4467		-29.296875
4468		-31.250000
4469		-27.343750
4470		-27.343750
4471		-23.437500
4472		-29.296875
4473		-17.578125
4474		-25.390625
4475		-15.625000
4476		-23.437500
4477		-13.671875
4478		-17.578125
4479		-13.671875
4480		-15.625000
4481		-11.718750
4482		-13.671875
4483		-7.812500
4484		-9.765625
4485		-5.859375
4486		-7.812500
4487		-1.953125
4488		-5.859375
4489		5.859375
4490		-3.906250
4491		5.859375
4492		-1.953125
4493		9.765625
4494		0.000000
4495		11.718750
4496		7.812500
4497		11.718750
4498		9.765625
4499		15.625000
4500		13.671875
4501		17.578125
4502		15.625000
4503		21.484375
4504		19.531250
4505		23.437500
4506		17.578125
4507		27.343750
4508		21.484375
4509		31.250000
4510		23.437500
4511		33.203125
4512		29.296875
4513		35.156250
4514		31.250000
4515		37.109375
4516		35.156250
4517		39.062500
4518		37.109375
4519		41.015625
4520		39.062500
4521		42.968750
4522		39.062500
4523		48.828125
4524		41.015625
4525		50.781250
4526		42.968750
4527		52.734375
4528		48.828125
4529		50.781250
4530		48.828125
4531		52.734375
4532		50.781250
4533		54.687500
4534		52.734375
4535		56.640625
4536		54.687500
4537		58.593750
4538		56.640625
4539		58.593750
4540		56.640625
4541		64.453125
4542		56.640625
4543		64.453125
4544		60.546875
4545		62.500000
4546		60.546875
4547		64.453125
4548		62.500000
4549		64.453125
4550		62.500000
4551		64.453125
4552		62.500000
4553		64.453125
4554		64.453125
4555		66.406250
4556		64.453125
4557		66.406250
4558		60.546875
4559		70.312500
4560		60.546875
4561		68.359375
4562		62.500000
4563		66.406250
4564		62.500000
4565		66.406250
4566		62.500000
4567		64.453125
4568		62.500000
4569		64.453125
4570		62.500000
4571		64.453125
4572		60.546875
4573		64.453125
4574		58.593750
4575		64.453125
4576		58.593750
4577		62.500000
4578		56.640625
4579		60.546875
4580		56.640625
4581		58.593750
4582		54.687500
4583		58.593750
4584		52.734375
4585		56.640625
4586		50.781250
4587		54.687500
4588		48.828125
4589		52.734375
4590		46.875000
4591		50.781250
4592		44.921875
4593		48.828125
4594		42.968750
4595		48.828125
4596		41.015625
4597		44.921875
4598		39.062500
4599		42.968750
4600		37.109375
4601		41.015625
4602		35.156250
4603		39.062500
4604		31.250000
4605		35.156250
4606		29.296875
4607		33.203125
4608		27.343750
4609		31.250000
4610		23.437500
4611		27.343750
4612		21.484375
4613		25.390625
4614		17.578125
4615		23.437500
4616		15.625000
4617		19.531250
4618		11.718750
4619		17.578125
4620		9.765625
4621		13.671875
4622		5.859375
4623		11.718750
4624		3.906250
4625		7.812500
4626		1.953125
4627		5.859375
4628		-1.953125
4629		1.953125
4630		-5.859375
4631		0.000000
4632		-7.812500
4633		-3.906250
4634		-9.765625
4635		-5.859375
4636		-13.671875
4637		-7.812500
4638		-15.625000
4639		-11.718750
4640		-17.578125
4641		-13.671875
4642		-21.484375
4643		-17.578125
4644		-23.437500
4645		-19.531250
4646		-27.343750
4647		-21.484375
4648		-29.296875
4649		-23.437500
4650		-31.250000
4651		-27.343750
4652		-33.203125
4653		-29.296875
4654		-35.156250
4655		-31.250000
4656		-39.062500
4657		-33.203125
4658		-41.015625
4659		-35.156250
4660		-41.015625
4661		-37.109375
4662		-42.968750
4663		-39.062500
4664		-44.921875
4665		-41.015625
4666		-44.921875
4667		-42.968750
4668		-46.875000
4669		-42.968750
4670		-48.828125
4671		-44.921875
4672		-48.828125
4673		-46.875000
4674		-50.781250
4675		-44.921875
4676		-50.781250
4677		-46.875000
4678		-50.781250
4679		-48.828125
4680		-52.734375
4681		-48.828125
4682		-52.734375
4683		-48.828125
4684		-52.734375
4685		-48.828125
4686		-52.734375
4687		-48.828125
4688		-52.734375
4689		-48.828125
4690		-52.734375
4691		-46.875000
4692		-50.781250
4693		-46.875000
4694		-50.781250
4695		-46.875000
4696		-48.828125
4697		-44.921875
4698		-48.828125
4699		-44.921875
4700		-48.828125
4701		-44.921875
4702		-46.875000
4703		-42.968750
4704		-44.921875
4705		-41.015625
4706		-42.968750
4707		-39.062500
4708		-42.968750
4709		-37.109375
4710		-41.015625
4711		-37.109375
4712		-39.062500
4713		-35.156250
4714		-37.109375
4715		-31.250000
4716		-35.156250
4717		-29.296875
4718		-31.250000
4719		-27.343750
4720		-29.296875
4721		-25.390625
4722		-27.343750
4723		-23.437500
4724		-25.390625
4725		-19.531250
4726		-23.437500
4727		-17.578125
4728		-19.531250
4729		-15.625000
4730		-17.578125
4731		-11.718750
4732		-15.625000
4733		-9.765625
4734		-11.718750
4735		-7.812500
4736		-9.765625
4737		-3.906250
4738		-5.859375
4739		-1.953125
4740		-3.906250
4741		3.906250
4742		0.000000
4743		3.906250
4744		1.953125
4745		7.812500
4746		5.859375
4747		11.718750
4748		7.812500
4749		13.671875
4750		11.718750
4751		15.625000
4752		13.671875
4753		17.578125
4754		17.578125
4755		21.484375
4756		19.531250
4757		23.437500
4758		19.531250
4759		27.343750
4760		25.390625
4761		29.296875
4762		27.343750
4763		31.250000
4764		29.296875
4765		35.156250
4766		33.203125
4767		37.109375
4768		35.156250
4769		39.062500
4770		37.109375
4771		42.968750
4772		41.015625
4773		44.921875
4774		41.015625
4775		46.875000
4776		44.921875
4777		48.828125
4778		46.875000
4779		50.781250
4780		48.828125
4781		52.734375
4782		48.828125
4783		54.687500
4784		52.734375
4785		56.640625
4786		54.687500
4787		56.640625
4788		54.687500
4789		58.593750
4790		56.640625
4791		62.500000
4792		56.640625
4793		62.500000
4794		58.593750
4795		62.500000
4796		60.546875
4797		62.500000
4798		60.546875
4799		64.453125
4800		60.546875
4801		64.453125
4802		62.500000
4803		64.453125
4804		62.500000
4805		66.406250
4806		64.453125
4807		66.406250
4808		62.500000
4809		66.406250
4810		62.500000
4811		66.406250
4812		64.453125
4813		66.406250
4814		62.500000
4815		66.406250
4816		62.500000
4817		66.406250
4818		62.500000
4819		66.406250
4820		62.500000
4821		64.453125
4822		62.500000
4823		64.453125
4824		60.546875
4825		64.453125
4826		60.546875
4827		62.500000
4828		58.593750
4829		62.500000
4830		56.640625
4831		60.546875
4832		54.687500
4833		60.546875
4834		54.687500
4835		58.593750
4836		52.734375
4837		56.640625
4838		50.781250
4839		54.687500
4840		48.828125
4841		52.734375
4842		46.875000
4843		50.781250
4844		44.921875
4845		48.828125
4846		42.968750
4847		46.875000
4848		41.015625
4849		44.921875
4850		39.062500
4851		42.968750
4852		37.109375
4853		41.015625
4854		33.203125
4855		39.062500
4856		31.250000
4857		35.156250
4858		29.296875
4859		33.203125
4860		25.390625
4861		31.250000
4862		23.437500
4863		27.343750
4864		19.531250
4865		25.390625
4866		17.578125
4867		21.484375
4868		15.625000
4869		19.531250
4870		11.718750
4871		17.578125
4872		9.765625
4873		13.671875
4874		5.859375
4875		11.718750
4876		3.906250
4877		7.812500
4878		0.000000
4879		5.859375
4880		-1.953125
4881		1.953125
4882		-5.859375
4883		-1.953125
4884		-7.812500
4885		-3.906250
4886		-11.718750
4887		-5.859375
4888		-13.671875
4889		-9.765625
4890		-15.625000
4891		-11.718750
4892		-19.531250
4893		-13.671875
4894		-21.484375
4895		-17.578125
4896		-23.437500
4897		-19.531250
4898		-27.343750
4899		-23.437500
4900		-29.296875
4901		-25.390625
4902		-31.250000
4903		-27.343750
4904		-33.203125
4905		-29.296875
4906		-35.156250
4907		-31.250000
4908		-37.109375
4909		-35.156250
4910		-39.062500
4911		-35.156250
4912		-41.015625
4913		-37.109375
4914		-42.968750
4915		-39.062500
4916		-44.921875
4917		-41.015625
4918		-44.921875
4919		-42.968750
4920		-46.875000
4921		-44.921875
4922		-48.828125
4923		-44.921875
4924		-48.828125
4925		-46.875000
4926		-50.781250
4927		-46.875000
4928		-50.781250
4929		-46.875000
4930		-50.781250
4931		-48.828125
4932		-50.781250
4933		-48.828125
4934		-50.781250
4935		-48.828125
4936		-50.781250
4937		-48.828125
4938		-50.781250
4939		-48.828125
4940		-50.781250
4941		-48.828125
4942		-52.734375
4943		-46.875000
4944		-50.781250
4945		-48.828125
4946		-50.781250
4947		-46.875000
4948		-48.828125
4949		-46.875000
4950		-48.828125
4951		-44.921875
4952		-46.875000
4953		-42.968750
4954		-46.875000
4955		-42.968750
4956		-44.921875
4957		-41.015625
4958		-42.968750
4959		-39.062500
4960		-42.968750
4961		-37.109375
4962		-39.062500
4963		-37.109375
4964		-37.109375
4965		-33.203125
4966		-35.156250
4967		-31.250000
4968		-33.203125
4969		-29.296875
4970		-31.250000
4971		-27.343750
4972		-29.296875
4973		-25.390625
4974		-27.343750
4975		-23.437500
4976		-25.390625
4977		-19.531250
4978		-23.437500
4979		-17.578125
4980		-19.531250
4981		-13.671875
4982		-17.578125
4983		-11.718750
4984		-13.671875
4985		-9.765625
4986		-11.718750
4987		-5.859375
4988		-7.812500
4989		-3.906250
4990		-5.859375
4991		0.000000
4992		-1.953125
4993		3.906250
4994		0.000000
4995		5.859375
4996		3.906250
4997		7.812500
4998		5.859375
4999		11.718750
5000		9.765625
5001		13.671875
5002		11.718750
5003		15.625000
5004		13.671875
5005		19.531250
5006		17.578125
5007		21.484375
5008		19.531250
5009		25.390625
5010		19.531250
5011		29.296875
5012		23.437500
5013		31.250000
5014		29.296875
5015		33.203125
5016		31.250000
5017		35.156250
5018		33.203125
5019		37.109375
5020		35.156250
5021		41.015625
5022		39.062500
5023		42.968750
5024		41.015625
5025		44.921875
5026		42.968750
5027		48.828125
5028		44.921875
5029		50.781250
5030		46.875000
5031		50.781250
5032		48.828125
5033		52.734375
5034		50.781250
5035		54.687500
5036		52.734375
5037		56.640625
5038		54.687500
5039		58.593750
5040		56.640625
5041		58.593750
5042		56.640625
5043		62.500000
5044		56.640625
5045		62.500000
5046		58.593750
5047		62.500000
5048		60.546875
5049		64.453125
5050		62.500000
5051		64.453125
5052		62.500000
5053		64.453125
5054		62.500000
5055		66.406250
5056		62.500000
5057		66.406250
5058		64.453125
5059		66.406250
5060		62.500000
5061		68.359375
5062		62.500000
5063		68.359375
5064		64.453125
5065		66.406250
5066		64.453125
5067		66.406250
5068		62.500000
5069		66.406250
5070		62.500000
5071		66.406250
5072		62.500000
5073		64.453125
5074		60.546875
5075		64.453125
5076		58.593750
5077		64.453125
5078		58.593750
5079		64.453125
5080		58.593750
5081		62.500000
5082		56.640625
5083		60.546875
5084		56.640625
5085		58.593750
5086		54.687500
5087		58.593750
5088		52.734375
5089		56.640625
5090		50.781250
5091		54.687500
5092		48.828125
5093		52.734375
5094		46.875000
5095		52.734375
5096		44.921875
5097		50.781250
5098		42.968750
5099		46.875000
5100		41.015625
5101		44.921875
5102		39.062500
5103		42.968750
5104		35.156250
5105		41.015625
5106		33.203125
5107		37.109375
5108		31.250000
5109		35.156250
5110		25.390625
5111		33.203125
5112		23.437500
5113		31.250000
5114		23.437500
5115		27.343750
5116		19.531250
5117		25.390625
5118		17.578125
5119		21.484375
5120		13.671875
5121		19.531250
5122		11.718750
5123		15.625000
5124		7.812500
5125		13.671875
5126		5.859375
5127		9.765625
5128		1.953125
5129		9.765625
5130		0.000000
5131		5.859375
5132		-1.953125
5133		1.953125
5134		-5.859375
5135		-1.953125
5136		-7.812500
5137		-3.906250
5138		-11.718750
5139		-7.812500
5140		-13.671875
5141		-9.765625
5142		-17.578125
5143		-11.718750
5144		-21.484375
5145		-13.671875
5146		-23.437500
5147		-17.578125
5148		-25.390625
5149		-21.484375
5150		-27.343750
5151		-23.437500
5152		-29.296875
5153		-25.390625
5154		-31.250000
5155		-27.343750
5156		-35.156250
5157		-29.296875
5158		-37.109375
5159		-31.250000
5160		-39.062500
5161		-33.203125
5162		-39.062500
5163		-37.109375
5164		-41.015625
5165		-37.109375
5166		-42.968750
5167		-39.062500
5168		-44.921875
5169		-41.015625
5170		-44.921875
5171		-42.968750
5172		-46.875000
5173		-42.968750
5174		-48.828125
5175		-44.921875
5176		-48.828125
5177		-46.875000
5178		-50.781250
5179		-46.875000
5180		-50.781250
5181		-46.875000
5182		-50.781250
5183		-48.828125
5184		-50.781250
5185		-48.828125
5186		-50.781250
5187		-48.828125
5188		-52.734375
5189		-48.828125
5190		-50.781250
5191		-48.828125
5192		-50.781250
5193		-48.828125
5194		-52.734375
5195		-46.875000
5196		-50.781250
5197		-46.875000
5198		-48.828125
5199		-46.875000
5200		-48.828125
5201		-44.921875
5202		-46.875000
5203		-44.921875
5204		-46.875000
5205		-42.968750
5206		-44.921875
5207		-41.015625
5208		-44.921875
5209		-41.015625
5210		-42.968750
5211		-39.062500
5212		-41.015625
5213		-37.109375
5214		-39.062500
5215		-35.156250
5216		-37.109375
5217		-33.203125
5218		-35.156250
5219		-31.250000
5220		-33.203125
5221		-29.296875
5222		-31.250000
5223		-27.343750
5224		-29.296875
5225		-23.437500
5226		-25.390625
5227		-21.484375
5228		-23.437500
5229		-19.531250
5230		-21.484375
5231		-17.578125
5232		-17.578125
5233		-13.671875
5234		-15.625000
5235		-11.718750
5236		-13.671875
5237		-7.812500
5238		-9.765625
5239		-5.859375
5240		-7.812500
5241		-1.953125
5242		-3.906250
5243		0.000000
5244		-1.953125
5245		3.906250
5246		1.953125
5247		5.859375
5248		3.906250
5249		9.765625
5250		7.812500
5251		11.718750
5252		9.765625
5253		13.671875
5254		13.671875
5255		17.578125
5256		15.625000
5257		19.531250
5258		19.531250
5259		23.437500
5260		21.484375
5261		25.390625
5262		23.437500
5263		29.296875
5264		27.343750
5265		31.250000
5266		29.296875
5267		33.203125
5268		31.250000
5269		37.109375
5270		35.156250
5271		39.062500
5272		37.109375
5273		41.015625
5274		39.062500
5275		42.968750
5276		41.015625
5277		44.921875
5278		44.921875
5279		48.828125
5280		44.921875
5281		48.828125
5282		48.828125
5283		52.734375
5284		48.828125
5285		52.734375
5286		50.781250
5287		54.687500
5288		52.734375
5289		56.640625
5290		54.687500
5291		58.593750
5292		56.640625
5293		60.546875
5294		56.640625
5295		60.546875
5296		58.593750
5297		62.500000
5298		60.546875
5299		62.500000
5300		60.546875
5301		64.453125
5302		62.500000
5303		64.453125
5304		62.500000
5305		66.406250
5306		62.500000
5307		66.406250
5308		64.453125
5309		66.406250
5310		64.453125
5311		66.406250
5312		64.453125
5313		66.406250
5314		64.453125
5315		66.406250
5316		64.453125
5317		66.406250
5318		64.453125
5319		66.406250
5320		64.453125
5321		66.406250
5322		62.500000
5323		66.406250
5324		62.500000
5325		64.453125
5326		62.500000
5327		64.453125
5328		60.546875
5329		64.453125
5330		60.546875
5331		62.500000
5332		58.593750
5333		62.500000
5334		56.640625
5335		60.546875
5336		56.640625
5337		58.593750
5338		54.687500
5339		56.640625
5340		52.734375
5341		56.640625
5342		50.781250
5343		54.687500
5344		48.828125
5345		52.734375
5346		46.875000
5347		50.781250
5348		44.921875
5349		48.828125
5350		42.968750
5351		46.875000
5352		41.015625
5353		44.921875
5354		39.062500
5355		42.968750
5356		35.156250
5357		39.062500
5358		33.203125
5359		37.109375
5360		29.296875
5361		35.156250
5362		27.343750
5363		33.203125
5364		25.390625
5365		29.296875
5366		23.437500
5367		27.343750
5368		19.531250
5369		23.437500
5370		17.578125
5371		21.484375
5372		13.671875
5373		19.531250
5374		11.718750
5375		15.625000
5376		7.812500
5377		13.671875
5378		5.859375
5379		9.765625
5380		1.953125
5381		7.812500
5382		0.000000
5383		3.906250
5384		-3.906250
5385		1.953125
5386		-5.859375
5387		-1.953125
5388		-9.765625
5389		-3.906250
5390		-11.718750
5391		-7.812500
5392		-13.671875
5393		-9.765625
5394		-17.578125
5395		-13.671875
5396		-19.531250
5397		-15.625000
5398		-21.484375
5399		-17.578125
5400		-25.390625
5401		-21.484375
5402		-27.343750
5403		-23.437500
5404		-29.296875
5405		-25.390625
5406		-31.250000
5407		-27.343750
5408		-35.156250
5409		-29.296875
5410		-37.109375
5411		-33.203125
5412		-37.109375
5413		-35.156250
5414		-39.062500
5415		-37.109375
5416		-41.015625
5417		-39.062500
5418		-42.968750
5419		-39.062500
5420		-44.921875
5421		-41.015625
5422		-46.875000
5423		-42.968750
5424		-46.875000
5425		-42.968750
5426		-48.828125
5427		-44.921875
5428		-48.828125
5429		-46.875000
5430		-48.828125
5431		-46.875000
5432		-50.781250
5433		-46.875000
5434		-50.781250
5435		-48.828125
5436		-50.781250
5437		-48.828125
5438		-50.781250
5439		-48.828125
5440		-50.781250
5441		-48.828125
5442		-50.781250
5443		-48.828125
5444		-50.781250
5445		-48.828125
5446		-50.781250
5447		-46.875000
5448		-48.828125
5449		-46.875000
5450		-48.828125
5451		-46.875000
5452		-48.828125
5453		-44.921875
5454		-46.875000
5455		-42.968750
5456		-44.921875
5457		-42.968750
5458		-44.921875
5459		-41.015625
5460		-42.968750
5461		-41.015625
5462		-41.015625
5463		-39.062500
5464		-39.062500
5465		-37.109375
5466		-39.062500
5467		-35.156250
5468		-35.156250
5469		-33.203125
5470		-33.203125
5471		-31.250000
5472		-31.250000
5473		-27.343750
5474		-29.296875
5475		-25.390625
5476		-27.343750
5477		-23.437500
5478		-25.390625
5479		-21.484375
5480		-23.437500
5481		-17.578125
5482		-19.531250
5483		-15.625000
5484		-17.578125
5485		-13.671875
5486		-13.671875
5487		-9.765625
5488		-11.718750
5489		-7.812500
5490		-9.765625
5491		-3.906250
5492		-5.859375
5493		-1.953125
5494		-3.906250
5495		1.953125
5496		0.000000
5497		3.906250
5498		1.953125
5499		7.812500
5500		5.859375
5501		9.765625
5502		7.812500
5503		11.718750
5504		11.718750
5505		15.625000
5506		13.671875
5507		17.578125
5508		17.578125
5509		21.484375
5510		19.531250
5511		23.437500
5512		21.484375
5513		27.343750
5514		25.390625
5515		29.296875
5516		27.343750
5517		31.250000
5518		31.250000
5519		35.156250
5520		33.203125
5521		37.109375
5522		35.156250
5523		39.062500
5524		37.109375
5525		42.968750
5526		41.015625
5527		44.921875
5528		42.968750
5529		46.875000
5530		44.921875
5531		48.828125
5532		46.875000
5533		50.781250
5534		48.828125
5535		52.734375
5536		50.781250
5537		54.687500
5538		52.734375
5539		56.640625
5540		54.687500
5541		58.593750
5542		54.687500
5543		58.593750
5544		56.640625
5545		60.546875
5546		58.593750
5547		60.546875
5548		60.546875
5549		62.500000
5550		60.546875
5551		62.500000
5552		60.546875
5553		64.453125
5554		62.500000
5555		64.453125
5556		62.500000
5557		66.406250
5558		64.453125
5559		66.406250
5560		64.453125
5561		66.406250
5562		64.453125
5563		66.406250
5564		64.453125
5565		68.359375
5566		64.453125
5567		66.406250
5568		64.453125
5569		66.406250
5570		64.453125
5571		66.406250
5572		64.453125
5573		66.406250
5574		62.500000
5575		66.406250
5576		62.500000
5577		64.453125
5578		62.500000
5579		64.453125
5580		60.546875
5581		62.500000
5582		60.546875
5583		62.500000
5584		58.593750
5585		60.546875
5586		56.640625
5587		60.546875
5588		54.687500
5589		58.593750
5590		54.687500
5591		56.640625
5592		52.734375
5593		56.640625
5594		50.781250
5595		54.687500
5596		48.828125
5597		52.734375
5598		46.875000
5599		50.781250
5600		44.921875
5601		48.828125
5602		42.968750
5603		46.875000
5604		41.015625
5605		44.921875
5606		37.109375
5607		42.968750
5608		35.156250
5609		39.062500
5610		33.203125
5611		37.109375
5612		31.250000
5613		35.156250
5614		27.343750
5615		31.250000
5616		25.390625
5617		29.296875
5618		21.484375
5619		27.343750
5620		19.531250
5621		23.437500
5622		15.625000
5623		21.484375
5624		13.671875
5625		17.578125
5626		11.718750
5627		15.625000
5628		7.812500
5629		11.718750
5630		5.859375
5631		9.765625
5632		1.953125
5633		5.859375
5634		0.000000
5635		3.906250
5636		-3.906250
5637		0.000000
5638		-5.859375
5639		-1.953125
5640		-9.765625
5641		-3.906250
5642		-11.718750
5643		-7.812500
5644		-15.625000
5645		-9.765625
5646		-17.578125
5647		-13.671875
5648		-19.531250
5649		-15.625000
5650		-23.437500
5651		-17.578125
5652		-25.390625
5653		-21.484375
5654		-27.343750
5655		-23.437500
5656		-29.296875
5657		-25.390625
5658		-31.250000
5659		-29.296875
5660		-35.156250
5661		-31.250000
5662		-37.109375
5663		-33.203125
5664		-39.062500
5665		-35.156250
5666		-41.015625
5667		-37.109375
5668		-41.015625
5669		-39.062500
5670		-42.968750
5671		-39.062500
5672		-44.921875
5673		-41.015625
5674		-46.875000
5675		-42.968750
5676		-46.875000
5677		-42.968750
5678		-48.828125
5679		-44.921875
5680		-48.828125
5681		-46.875000
5682		-48.828125
5683		-46.875000
5684		-50.781250
5685		-46.875000
5686		-50.781250
5687		-46.875000
5688		-50.781250
5689		-48.828125
5690		-50.781250
5691		-48.828125
5692		-50.781250
5693		-48.828125
5694		-50.781250
5695		-48.828125
5696		-50.781250
5697		-46.875000
5698		-48.828125
5699		-46.875000
5700		-48.828125
5701		-46.875000
5702		-48.828125
5703		-44.921875
5704		-46.875000
5705		-44.921875
5706		-46.875000
5707		-42.968750
5708		-44.921875
5709		-42.968750
5710		-44.921875
5711		-41.015625
5712		-42.968750
5713		-39.062500
5714		-41.015625
5715		-37.109375
5716		-39.062500
5717		-35.156250
5718		-37.109375
5719		-33.203125
5720		-35.156250
5721		-31.250000
5722		-33.203125
5723		-29.296875
5724		-31.250000
5725		-27.343750
5726		-29.296875
5727		-25.390625
5728		-27.343750
5729		-23.437500
5730		-23.437500
5731		-19.531250
5732		-21.484375
5733		-17.578125
5734		-19.531250
5735		-15.625000
5736		-15.625000
5737		-11.718750
5738		-13.671875
5739		-9.765625
5740		-11.718750
5741		-5.859375
5742		-7.812500
5743		-3.906250
5744		-5.859375
5745		0.000000
5746		-1.953125
5747		1.953125
5748		0.000000
5749		3.906250
5750		1.953125
5751		7.812500
5752		5.859375
5753		11.718750
5754		9.765625
5755		13.671875
5756		11.718750
5757		15.625000
5758		13.671875
5759		19.531250
5760		17.578125
5761		21.484375
5762		21.484375
5763		25.390625
5764		23.437500
5765		27.343750
5766		25.390625
5767		31.250000
5768		29.296875
5769		33.203125
5770		31.250000
5771		35.156250
5772		33.203125
5773		39.062500
5774		37.109375
5775		41.015625
5776		39.062500
5777		42.968750
5778		41.015625
5779		44.921875
5780		42.968750
5781		46.875000
5782		44.921875
5783		48.828125
5784		46.875000
5785		50.781250
5786		48.828125
5787		52.734375
5788		50.781250
5789		54.687500
5790		52.734375
5791		56.640625
5792		54.687500
5793		58.593750
5794		56.640625
5795		58.593750
5796		56.640625
5797		60.546875
5798		58.593750
5799		62.500000
5800		60.546875
5801		62.500000
5802		60.546875
5803		64.453125
5804		62.500000
5805		64.453125
5806		62.500000
5807		64.453125
5808		62.500000
5809		66.406250
5810		64.453125
5811		66.406250
5812		64.453125
5813		66.406250
5814		64.453125
5815		66.406250
5816		64.453125
5817		66.406250
5818		64.453125
5819		66.406250
5820		64.453125
5821		66.406250
5822		64.453125
5823		66.406250
5824		64.453125
5825		66.406250
5826		62.500000
5827		66.406250
5828		62.500000
5829		64.453125
5830		60.546875
5831		64.453125
5832		60.546875
5833		64.453125
5834		60.546875
5835		62.500000
5836		58.593750
5837		60.546875
5838		56.640625
5839		60.546875
5840		54.687500
5841		58.593750
5842		54.687500
5843		56.640625
5844		52.734375
5845		56.640625
5846		50.781250
5847		54.687500
5848		48.828125
5849		52.734375
5850		46.875000
5851		50.781250
5852		44.921875
5853		48.828125
5854		42.968750
5855		46.875000
5856		39.062500
5857		44.921875
5858		37.109375
5859		41.015625
5860		35.156250
5861		39.062500
5862		33.203125
5863		37.109375
5864		29.296875
5865		35.156250
5866		27.343750
5867		31.250000
5868		25.390625
5869		29.296875
5870		21.484375
5871		25.390625
5872		19.531250
5873		23.437500
5874		15.625000
5875		21.484375
5876		13.671875
5877		17.578125
5878		9.765625
5879		15.625000
5880		7.812500
5881		11.718750
5882		3.906250
5883		9.765625
5884		1.953125
5885		5.859375
5886		-1.953125
5887		3.906250
5888		-3.906250
5889		0.000000
5890		-7.812500
5891		-1.953125
5892		-9.765625
5893		-5.859375
5894		-13.671875
5895		-7.812500
5896		-15.625000
5897		-11.718750
5898		-17.578125
5899		-13.671875
5900		-21.484375
5901		-15.625000
5902		-23.437500
5903		-19.531250
5904		-25.390625
5905		-21.484375
5906		-27.343750
5907		-23.437500
5908		-29.296875
5909		-25.390625
5910		-33.203125
5911		-29.296875
5912		-35.156250
5913		-31.250000
5914		-37.109375
5915		-33.203125
5916		-39.062500
5917		-35.156250
5918		-41.015625
5919		-37.109375
5920		-42.968750
5921		-39.062500
5922		-42.968750
5923		-41.015625
5924		-44.921875
5925		-41.015625
5926		-46.875000
5927		-42.968750
5928		-48.828125
5929		-44.921875
5930		-48.828125
5931		-44.921875
5932		-48.828125
5933		-46.875000
5934		-48.828125
5935		-46.875000
5936		-48.828125
5937		-46.875000
5938		-50.781250
5939		-48.828125
5940		-50.781250
5941		-48.828125
5942		-50.781250
5943		-48.828125
5944		-50.781250
5945		-48.828125
5946		-50.781250
5947		-48.828125
5948		-50.781250
5949		-46.875000
5950		-48.828125
5951		-46.875000
5952		-48.828125
5953		-46.875000
5954		-48.828125
5955		-44.921875
5956		-46.875000
5957		-44.921875
5958		-46.875000
5959		-42.968750
5960		-44.921875
5961		-41.015625
5962		-42.968750
5963		-39.062500
5964		-42.968750
5965		-39.062500
5966		-41.015625
5967		-37.109375
5968		-39.062500
5969		-35.156250
5970		-37.109375
5971		-33.203125
5972		-35.156250
5973		-31.250000
5974		-33.203125
5975		-29.296875
5976		-31.250000
5977		-27.343750
5978		-27.343750
5979		-23.437500
5980		-25.390625
5981		-21.484375
5982		-23.437500
5983		-19.531250
5984		-21.484375
5985		-17.578125
5986		-17.578125
5987		-13.671875
5988		-15.625000
5989		-11.718750
5990		-13.671875
5991		-7.812500
5992		-9.765625
5993		-5.859375
5994		-7.812500
5995		-3.906250
5996		-3.906250
5997		0.000000
5998		-1.953125
5999		1.953125
6000		1.953125
6001		5.859375
6002		3.906250
6003		7.812500
6004		5.859375
6005		13.671875
6006		9.765625
6007		13.671875
6008		13.671875
6009		19.531250
6010		13.671875
6011		19.531250
6012		19.531250
6013		23.437500
6014		21.484375
6015		25.390625
6016		23.437500
6017		29.296875
6018		27.343750
6019		31.250000
6020		29.296875
6021		33.203125
6022		29.296875
6023		37.109375
6024		35.156250
6025		39.062500
6026		37.109375
6027		42.968750
6028		39.062500
6029		42.968750
6030		41.015625
6031		46.875000
6032		42.968750
6033		48.828125
6034		46.875000
6035		50.781250
6036		46.875000
6037		50.781250
6038		48.828125
6039		54.687500
6040		50.781250
6041		56.640625
6042		52.734375
6043		58.593750
6044		52.734375
6045		58.593750
6046		54.687500
6047		62.500000
6048		58.593750
6049		60.546875
6050		60.546875
6051		62.500000
6052		60.546875
6053		64.453125
6054		60.546875
6055		64.453125
6056		60.546875
6057		66.406250
6058		62.500000
6059		66.406250
6060		60.546875
6061		68.359375
6062		64.453125
6063		66.406250
6064		62.500000
6065		70.312500
6066		64.453125
6067		66.406250
6068		64.453125
6069		68.359375
6070		62.500000
6071		70.312500
6072		62.500000
6073		70.312500
6074		64.453125
6075		68.359375
6076		60.546875
6077		68.359375
6078		62.500000
6079		66.406250
6080		60.546875
6081		68.359375
6082		62.500000
6083		64.453125
6084		60.546875
6085		64.453125
6086		56.640625
6087		64.453125
6088		56.640625
6089		64.453125
6090		56.640625
6091		60.546875
6092		54.687500
6093		58.593750
6094		50.781250
6095		60.546875
6096		50.781250
6097		56.640625
6098		48.828125
6099		56.640625
6100		48.828125
6101		52.734375
6102		44.921875
6103		50.781250
6104		41.015625
6105		50.781250
6106		41.015625
6107		46.875000
6108		39.062500
6109		42.968750
6110		35.156250
6111		42.968750
6112		33.203125
6113		42.968750
6114		27.343750
6115		37.109375
6116		29.296875
6117		33.203125
6118		27.343750
6119		31.250000
6120		23.437500
6121		29.296875
6122		19.531250
6123		29.296875
6124		19.531250
6125		23.437500
6126		13.671875
6127		19.531250
6128		9.765625
6129		19.531250
6130		5.859375
6131		17.578125
6132		7.812500
6133		11.718750
6134		3.906250
6135		7.812500
6136		0.000000
6137		5.859375
6138		-3.906250
6139		3.906250
6140		-5.859375
6141		1.953125
6142		-7.812500
6143		-1.953125
6144		-13.671875
6145		-3.906250
6146		-13.671875
6147		-3.906250
6148		-17.578125
6149		-7.812500
6150		-17.578125
6151		-13.671875
6152		-21.484375
6153		-15.625000
6154		-27.343750
6155		-17.578125
6156		-25.390625
6157		-19.531250
6158		-27.343750
6159		-23.437500
6160		-31.250000
6161		-27.343750
6162		-35.156250
6163		-25.390625
6164		-37.109375
6165		-29.296875
6166		-37.109375
6167		-33.203125
6168		-39.062500
6169		-35.156250
6170		-42.968750
6171		-35.156250
6172		-44.921875
6173		-35.156250
6174		-42.968750
6175		-39.062500
6176		-44.921875
6177		-41.015625
6178		-48.828125
6179		-39.062500
6180		-46.875000
6181		-44.921875
6182		-48.828125
6183		-41.015625
6184		-48.828125
6185		-44.921875
6186		-50.781250
6187		-46.875000
6188		-52.734375
6189		-44.921875
6190		-52.734375
6191		-44.921875
6192		-50.781250
6193		-46.875000
6194		-52.734375
6195		-44.921875
6196		-52.734375
6197		-44.921875
6198		-52.734375
6199		-44.921875
6200		-48.828125
6201		-46.875000
6202		-48.828125
6203		-46.875000
6204		-48.828125
6205		-44.921875
6206		-50.781250
6207		-41.015625
6208		-46.875000
6209		-42.968750
6210		-44.921875
6211		-41.015625
6212		-46.875000
6213		-37.109375
6214		-44.921875
6215		-37.109375
6216		-41.015625
6217		-37.109375
6218		-39.062500
6219		-35.156250
6220		-37.109375
6221		-33.203125
6222		-37.109375
6223		-29.296875
6224		-35.156250
6225		-29.296875
6226		-31.250000
6227		-27.343750
6228		-31.250000
6229		-21.484375
6230		-31.250000
6231		-21.484375
6232		-27.343750
6233		-19.531250
6234		-21.484375
6235		-17.578125
6236		-19.531250
6237		-15.625000
6238		-17.578125
6239		-9.765625
6240		-17.578125
6241		-9.765625
6242		-11.718750
6243		-7.812500
6244		-9.765625
6245		-3.906250
6246		-9.765625
6247		0.000000
6248		-3.906250
6249		1.953125
6250		0.000000
6251		3.906250
6252		1.953125
6253		5.859375
6254		5.859375
6255		11.718750
6256		5.859375
6257		13.671875
6258		9.765625
6259		15.625000
6260		13.671875
6261		17.578125
6262		15.625000
6263		25.390625
6264		19.531250
6265		23.437500
6266		19.531250
6267		27.343750
6268		25.390625
6269		29.296875
6270		27.343750
6271		33.203125
6272		29.296875
6273		37.109375
6274		31.250000
6275		37.109375
6276		35.156250
6277		39.062500
6278		37.109375
6279		44.921875
6280		41.015625
6281		44.921875
6282		41.015625
6283		48.828125
6284		44.921875
6285		48.828125
6286		46.875000
6287		50.781250
6288		48.828125
6289		52.734375
6290		48.828125
6291		56.640625
6292		52.734375
6293		56.640625
6294		54.687500
6295		58.593750
6296		54.687500
6297		60.546875
6298		56.640625
6299		60.546875
6300		58.593750
6301		62.500000
6302		60.546875
6303		62.500000
6304		60.546875
6305		64.453125
6306		62.500000
6307		64.453125
6308		60.546875
6309		66.406250
6310		64.453125
6311		66.406250
6312		62.500000
6313		68.359375
6314		64.453125
6315		68.359375
6316		64.453125
6317		68.359375
6318		64.453125
6319		68.359375
6320		64.453125
6321		68.359375
6322		64.453125
6323		68.359375
6324		64.453125
6325		68.359375
6326		64.453125
6327		68.359375
6328		64.453125
6329		68.359375
6330		64.453125
6331		66.406250
6332		62.500000
6333		66.406250
6334		62.500000
6335		64.453125
6336		60.546875
6337		64.453125
6338		60.546875
6339		62.500000
6340		58.593750
6341		62.500000
6342		56.640625
6343		60.546875
6344		54.687500
6345		60.546875
6346		54.687500
6347		56.640625
6348		52.734375
6349		56.640625
6350		50.781250
6351		54.687500
6352		48.828125
6353		52.734375
6354		44.921875
6355		50.781250
6356		42.968750
6357		48.828125
6358		41.015625
6359		46.875000
6360		39.062500
6361		44.921875
6362		37.109375
6363		42.968750
6364		35.156250
6365		41.015625
6366		31.250000
6367		37.109375
6368		29.296875
6369		33.203125
6370		27.343750
6371		31.250000
6372		23.437500
6373		29.296875
6374		21.484375
6375		27.343750
6376		17.578125
6377		23.437500
6378		13.671875
6379		21.484375
6380		11.718750
6381		17.578125
6382		9.765625
6383		15.625000
6384		7.812500
6385		11.718750
6386		3.906250
6387		7.812500
6388		0.000000
6389		5.859375
6390		-3.906250
6391		3.906250
6392		-5.859375
6393		0.000000
6394		-7.812500
6395		-1.953125
6396		-11.718750
6397		-5.859375
6398		-13.671875
6399		-7.812500
6400		-15.625000
6401		-9.765625
6402		-17.578125
6403		-13.671875
6404		-21.484375
6405		-17.578125
6406		-23.437500
6407		-17.578125
6408		-27.343750
6409		-21.484375
6410		-29.296875
6411		-23.437500
6412		-31.250000
6413		-25.390625
6414		-33.203125
6415		-27.343750
6416		-37.109375
6417		-29.296875
6418		-37.109375
6419		-33.203125
6420		-39.062500
6421		-35.156250
6422		-41.015625
6423		-37.109375
6424		-41.015625
6425		-37.109375
6426		-44.921875
6427		-39.062500
6428		-46.875000
6429		-39.062500
6430		-46.875000
6431		-41.015625
6432		-46.875000
6433		-42.968750
6434		-48.828125
6435		-42.968750
6436		-48.828125
6437		-44.921875
6438		-50.781250
6439		-44.921875
6440		-50.781250
6441		-46.875000
6442		-50.781250
6443		-46.875000
6444		-52.734375
6445		-44.921875
6446		-50.781250
6447		-46.875000
6448		-50.781250
6449		-46.875000
6450		-48.828125
6451		-46.875000
6452		-48.828125
6453		-46.875000
6454		-48.828125
6455		-44.921875
6456		-48.828125
6457		-44.921875
6458		-46.875000
6459		-42.968750
6460		-46.875000
6461		-41.015625
6462		-46.875000
6463		-41.015625
6464		-44.921875
6465		-39.062500
6466		-42.968750
6467		-39.062500
6468		-41.015625
6469		-37.109375
6470		-39.062500
6471		-35.156250
6472		-37.109375
6473		-33.203125
6474		-35.156250
6475		-31.250000
6476		-33.203125
6477		-29.296875
6478		-31.250000
6479		-25.390625
6480		-29.296875
6481		-25.390625
6482		-27.343750
6483		-21.484375
6484		-23.437500
6485		-19.531250
6486		-21.484375
6487		-17.578125
6488		-19.531250
6489		-13.671875
6490		-15.625000
6491		-11.718750
6492		-13.671875
6493		-7.812500
6494		-11.718750
6495		-3.906250
6496		-7.812500
6497		-3.906250
6498		-5.859375
6499		0.000000
6500		-1.953125
6501		3.906250
6502		0.000000
6503		5.859375
6504		3.906250
6505		7.812500
6506		5.859375
6507		11.718750
6508		9.765625
6509		13.671875
6510		11.718750
6511		17.578125
6512		13.671875
6513		19.531250
6514		17.578125
6515		23.437500
6516		21.484375
6517		25.390625
6518		23.437500
6519		27.343750
6520		27.343750
6521		31.250000
6522		29.296875
6523		33.203125
6524		31.250000
6525		35.156250
6526		33.203125
6527		39.062500
6528		35.156250
6529		42.968750
6530		39.062500
6531		42.968750
6532		41.015625
6533		44.921875
6534		42.968750
6535		48.828125
6536		44.921875
6537		48.828125
6538		48.828125
6539		50.781250
6540		48.828125
6541		54.687500
6542		52.734375
6543		56.640625
6544		52.734375
6545		56.640625
6546		54.687500
6547		58.593750
6548		56.640625
6549		60.546875
6550		56.640625
6551		62.500000
6552		58.593750
6553		62.500000
6554		60.546875
6555		64.453125
6556		60.546875
6557		66.406250
6558		62.500000
6559		66.406250
6560		62.500000
6561		66.406250
6562		62.500000
6563		68.359375
6564		64.453125
6565		68.359375
6566		64.453125
6567		68.359375
6568		64.453125
6569		68.359375
6570		64.453125
6571		70.312500
6572		64.453125
6573		68.359375
6574		64.453125
6575		68.359375
6576		66.406250
6577		68.359375
6578		64.453125
6579		68.359375
6580		64.453125
6581		66.406250
6582		64.453125
6583		66.406250
6584		62.500000
6585		66.406250
6586		62.500000
6587		64.453125
6588		60.546875
6589		64.453125
6590		58.593750
6591		62.500000
6592		58.593750
6593		62.500000
6594		56.640625
6595		60.546875
6596		54.687500
6597		60.546875
6598		54.687500
6599		56.640625
6600		52.734375
6601		56.640625
6602		50.781250
6603		54.687500
6604		48.828125
6605		50.781250
6606		44.921875
6607		50.781250
6608		42.968750
6609		48.828125
6610		41.015625
6611		46.875000
6612		39.062500
6613		42.968750
6614		37.109375
6615		41.015625
6616		35.156250
6617		39.062500
6618		31.250000
6619		37.109375
6620		29.296875
6621		33.203125
6622		25.390625
6623		31.250000
6624		23.437500
6625		29.296875
6626		19.531250
6627		25.390625
6628		17.578125
6629		23.437500
6630		15.625000
6631		19.531250
6632		11.718750
6633		15.625000
6634		7.812500
6635		13.671875
6636		5.859375
6637		11.718750
6638		3.906250
6639		7.812500
6640		0.000000
6641		3.906250
6642		-1.953125
6643		1.953125
6644		-5.859375
6645		0.000000
6646		-7.812500
6647		-3.906250
6648		-9.765625
6649		-5.859375
6650		-13.671875
6651		-9.765625
6652		-15.625000
6653		-11.718750
6654		-19.531250
6655		-13.671875
6656		-23.437500
6657		-17.578125
6658		-23.437500
6659		-19.531250
6660		-27.343750
6661		-21.484375
6662		-29.296875
6663		-23.437500
6664		-31.250000
6665		-27.343750
6666		-33.203125
6667		-29.296875
6668		-35.156250
6669		-31.250000
6670		-37.109375
6671		-33.203125
6672		-39.062500
6673		-35.156250
6674		-41.015625
6675		-37.109375
6676		-42.968750
6677		-37.109375
6678		-42.968750
6679		-39.062500
6680		-44.921875
6681		-41.015625
6682		-46.875000
6683		-42.968750
6684		-46.875000
6685		-42.968750
6686		-48.828125
6687		-42.968750
6688		-48.828125
6689		-44.921875
6690		-48.828125
6691		-44.921875
6692		-48.828125
6693		-44.921875
6694		-50.781250
6695		-46.875000
6696		-50.781250
6697		-46.875000
6698		-50.781250
6699		-46.875000
6700		-48.828125
6701		-46.875000
6702		-48.828125
6703		-44.921875
6704		-48.828125
6705		-46.875000
6706		-48.828125
6707		-44.921875
6708		-46.875000
6709		-44.921875
6710		-46.875000
6711		-42.968750
6712		-46.875000
6713		-42.968750
6714		-44.921875
6715		-41.015625
6716		-42.968750
6717		-39.062500
6718		-42.968750
6719		-37.109375
6720		-41.015625
6721		-37.109375
6722		-39.062500
6723		-35.156250
6724		-37.109375
6725		-33.203125
6726		-33.203125
6727		-31.250000
6728		-33.203125
6729		-29.296875
6730		-31.250000
6731		-25.390625
6732		-27.343750
6733		-23.437500
6734		-25.390625
6735		-21.484375
6736		-23.437500
6737		-19.531250
6738		-21.484375
6739		-15.625000
6740		-17.578125
6741		-13.671875
6742		-15.625000
6743		-11.718750
6744		-13.671875
6745		-7.812500
6746		-9.765625
6747		-5.859375
6748		-7.812500
6749		-1.953125
6750		-3.906250
6751		0.000000
6752		-1.953125
6753		3.906250
6754		1.953125
6755		5.859375
6756		3.906250
6757		9.765625
6758		7.812500
6759		11.718750
6760		9.765625
6761		15.625000
6762		13.671875
6763		17.578125
6764		15.625000
6765		21.484375
6766		19.531250
6767		23.437500
6768		21.484375
6769		25.390625
6770		23.437500
6771		29.296875
6772		27.343750
6773		31.250000
6774		29.296875
6775		35.156250
6776		33.203125
6777		37.109375
6778		35.156250
6779		39.062500
6780		37.109375
6781		41.015625
6782		39.062500
6783		44.921875
6784		42.968750
6785		46.875000
6786		44.921875
6787		48.828125
6788		46.875000
6789		50.781250
6790		48.828125
6791		52.734375
6792		48.828125
6793		54.687500
6794		52.734375
6795		56.640625
6796		54.687500
6797		56.640625
6798		56.640625
6799		58.593750
6800		56.640625
6801		60.546875
6802		58.593750
6803		62.500000
6804		60.546875
6805		62.500000
6806		60.546875
6807		64.453125
6808		60.546875
6809		66.406250
6810		62.500000
6811		66.406250
6812		62.500000
6813		68.359375
6814		64.453125
6815		68.359375
6816		64.453125
6817		68.359375
6818		64.453125
6819		68.359375
6820		64.453125
6821		68.359375
6822		64.453125
6823		70.312500
6824		66.406250
6825		68.359375
6826		64.453125
6827		70.312500
6828		64.453125
6829		68.359375
6830		64.453125
6831		68.359375
6832		64.453125
6833		66.406250
6834		62.500000
6835		66.406250
6836		60.546875
6837		66.406250
6838		62.500000
6839		64.453125
6840		60.546875
6841		64.453125
6842		60.546875
6843		62.500000
6844		58.593750
6845		62.500000
6846		56.640625
6847		60.546875
6848		54.687500
6849		58.593750
6850		52.734375
6851		56.640625
6852		50.781250
6853		54.687500
6854		50.781250
6855		54.687500
6856		46.875000
6857		52.734375
6858		44.921875
6859		48.828125
6860		42.968750
6861		46.875000
6862		41.015625
6863		44.921875
6864		39.062500
6865		42.968750
6866		35.156250
6867		41.015625
6868		33.203125
6869		39.062500
6870		31.250000
6871		37.109375
6872		29.296875
6873		33.203125
6874		25.390625
6875		29.296875
6876		23.437500
6877		29.296875
6878		19.531250
6879		25.390625
6880		15.625000
6881		23.437500
6882		13.671875
6883		19.531250
6884		11.718750
6885		17.578125
6886		7.812500
6887		13.671875
6888		5.859375
6889		11.718750
6890		3.906250
6891		7.812500
6892		0.000000
6893		3.906250
6894		-1.953125
6895		1.953125
6896		-5.859375
6897		0.000000
6898		-7.812500
6899		-3.906250
6900		-11.718750
6901		-5.859375
6902		-13.671875
6903		-9.765625
6904		-15.625000
6905		-11.718750
6906		-19.531250
6907		-13.671875
6908		-21.484375
6909		-17.578125
6910		-23.437500
6911		-19.531250
6912		-27.343750
6913		-21.484375
6914		-29.296875
6915		-23.437500
6916		-31.250000
6917		-25.390625
6918		-33.203125
6919		-29.296875
6920		-35.156250
6921		-31.250000
6922		-37.109375
6923		-31.250000
6924		-39.062500
6925		-35.156250
6926		-41.015625
6927		-37.109375
6928		-41.015625
6929		-37.109375
6930		-42.968750
6931		-39.062500
6932		-44.921875
6933		-41.015625
6934		-44.921875
6935		-42.968750
6936		-46.875000
6937		-42.968750
6938		-46.875000
6939		-42.968750
6940		-48.828125
6941		-44.921875
6942		-48.828125
6943		-44.921875
6944		-48.828125
6945		-46.875000
6946		-48.828125
6947		-46.875000
6948		-48.828125
6949		-46.875000
6950		-48.828125
6951		-44.921875
6952		-48.828125
6953		-46.875000
6954		-48.828125
6955		-44.921875
6956		-48.828125
6957		-44.921875
6958		-46.875000
6959		-44.921875
6960		-48.828125
6961		-42.968750
6962		-44.921875
6963		-42.968750
6964		-44.921875
6965		-41.015625
6966		-42.968750
6967		-41.015625
6968		-42.968750
6969		-39.062500
6970		-41.015625
6971		-37.109375
6972		-39.062500
6973		-35.156250
6974		-37.109375
6975		-33.203125
6976		-35.156250
6977		-31.250000
6978		-33.203125
6979		-29.296875
6980		-31.250000
6981		-27.343750
6982		-29.296875
6983		-25.390625
6984		-27.343750
6985		-21.484375
6986		-25.390625
6987		-21.484375
6988		-21.484375
6989		-17.578125
6990		-19.531250
6991		-15.625000
6992		-17.578125
6993		-13.671875
6994		-15.625000
6995		-9.765625
6996		-13.671875
6997		-7.812500
6998		-9.765625
6999		-3.906250
7000		-5.859375
7001		0.000000
7002		-3.906250
7003		1.953125
7004		0.000000
7005		3.906250
7006		1.953125
7007		7.812500
7008		3.906250
7009		9.765625
7010		7.812500
7011		13.671875
7012		11.718750
7013		15.625000
7014		13.671875
7015		17.578125
7016		15.625000
7017		21.484375
7018		19.531250
7019		25.390625
7020		21.484375
7021		27.343750
7022		25.390625
7023		29.296875
7024		27.343750
7025		31.250000
7026		31.250000
7027		35.156250
7028		33.203125
7029		37.109375
7030		35.156250
7031		41.015625
7032		37.109375
7033		42.968750
7034		41.015625
7035		44.921875
7036		42.968750
7037		46.875000
7038		44.921875
7039		48.828125
7040		46.875000
7041		50.781250
7042		48.828125
7043		52.734375
7044		50.781250
7045		54.687500
7046		52.734375
7047		56.640625
7048		54.687500
7049		58.593750
7050		56.640625
7051		60.546875
7052		58.593750
7053		60.546875
7054		58.593750
7055		62.500000
7056		58.593750
7057		64.453125
7058		62.500000
7059		64.453125
7060		62.500000
7061		66.406250
7062		64.453125
7063		66.406250
7064		64.453125
7065		68.359375
7066		64.453125
7067		68.359375
7068		64.453125
7069		68.359375
7070		66.406250
7071		68.359375
7072		66.406250
7073		70.312500
7074		64.453125
7075		70.312500
7076		66.406250
7077		68.359375
7078		64.453125
7079		70.312500
7080		64.453125
7081		68.359375
7082		64.453125
7083		68.359375
7084		64.453125
7085		66.406250
7086		64.453125
7087		66.406250
7088		62.500000
7089		66.406250
7090		62.500000
7091		64.453125
7092		60.546875
7093		64.453125
7094		58.593750
7095		62.500000
7096		58.593750
7097		62.500000
7098		56.640625
7099		60.546875
7100		54.687500
7101		58.593750
7102		52.734375
7103		56.640625
7104		50.781250
7105		56.640625
7106		48.828125
7107		54.687500
7108		48.828125
7109		50.781250
7110		44.921875
7111		48.828125
7112		42.968750
7113		46.875000
7114		41.015625
7115		44.921875
7116		39.062500
7117		42.968750
7118		37.109375
7119		41.015625
7120		33.203125
7121		39.062500
7122		29.296875
7123		35.156250
7124		29.296875
7125		33.203125
7126		25.390625
7127		29.296875
7128		21.484375
7129		27.343750
7130		19.531250
7131		23.437500
7132		17.578125
7133		21.484375
7134		13.671875
7135		19.531250
7136		11.718750
7137		17.578125
7138		7.812500
7139		13.671875
7140		5.859375
7141		9.765625
7142		1.953125
7143		7.812500
7144		-1.953125
7145		3.906250
7146		-3.906250
7147		1.953125
7148		-5.859375
7149		0.000000
7150		-7.812500
7151		-3.906250
7152		-11.718750
7153		-5.859375
7154		-13.671875
7155		-9.765625
7156		-17.578125
7157		-11.718750
7158		-19.531250
7159		-15.625000
7160		-21.484375
7161		-17.578125
7162		-25.390625
7163		-19.531250
7164		-27.343750
7165		-23.437500
7166		-29.296875
7167		-25.390625
7168		-31.250000
7169		-27.343750
7170		-33.203125
7171		-29.296875
7172		-35.156250
7173		-31.250000
7174		-37.109375
7175		-33.203125
7176		-39.062500
7177		-35.156250
7178		-41.015625
7179		-37.109375
7180		-41.015625
7181		-39.062500
7182		-42.968750
7183		-41.015625
7184		-44.921875
7185		-41.015625
7186		-44.921875
7187		-42.968750
7188		-46.875000
7189		-42.968750
7190		-48.828125
7191		-44.921875
7192		-48.828125
7193		-44.921875
7194		-48.828125
7195		-44.921875
7196		-48.828125
7197		-46.875000
7198		-48.828125
7199		-46.875000
7200		-48.828125
7201		-46.875000
7202		-48.828125
7203		-46.875000
7204		-48.828125
7205		-46.875000
7206		-48.828125
7207		-44.921875
7208		-46.875000
7209		-44.921875
7210		-46.875000
7211		-44.921875
7212		-46.875000
7213		-42.968750
7214		-46.875000
7215		-42.968750
7216		-44.921875
7217		-41.015625
7218		-42.968750
7219		-39.062500
7220		-42.968750
7221		-39.062500
7222		-41.015625
7223		-37.109375
7224		-39.062500
7225		-35.156250
7226		-37.109375
7227		-33.203125
7228		-35.156250
7229		-29.296875
7230		-33.203125
7231		-29.296875
7232		-31.250000
7233		-25.390625
7234		-29.296875
7235		-25.390625
7236		-27.343750
7237		-21.484375
7238		-23.437500
7239		-19.531250
7240		-21.484375
7241		-17.578125
7242		-19.531250
7243		-13.671875
7244		-15.625000
7245		-11.718750
7246		-13.671875
7247		-9.765625
7248		-11.718750
7249		-5.859375
7250		-7.812500
7251		-3.906250
7252		-5.859375
7253		0.000000
7254		-1.953125
7255		1.953125
7256		0.000000
7257		5.859375
7258		1.953125
7259		7.812500
7260		5.859375
7261		9.765625
7262		9.765625
7263		13.671875
7264		11.718750
7265		15.625000
7266		15.625000
7267		19.531250
7268		17.578125
7269		21.484375
7270		21.484375
7271		25.390625
7272		23.437500
7273		27.343750
7274		25.390625
7275		31.250000
7276		29.296875
7277		33.203125
7278		31.250000
7279		37.109375
7280		33.203125
7281		39.062500
7282		35.156250
7283		41.015625
7284		39.062500
7285		42.968750
7286		41.015625
7287		46.875000
7288		42.968750
7289		48.828125
7290		44.921875
7291		50.781250
7292		46.875000
7293		50.781250
7294		48.828125
7295		52.734375
7296		50.781250
7297		54.687500
7298		52.734375
7299		56.640625
7300		54.687500
7301		58.593750
7302		56.640625
7303		60.546875
7304		58.593750
7305		62.500000
7306		58.593750
7307		62.500000
7308		58.593750
7309		64.453125
7310		62.500000
7311		64.453125
7312		62.500000
7313		66.406250
7314		62.500000
7315		66.406250
7316		64.453125
7317		68.359375
7318		64.453125
7319		68.359375
7320		64.453125
7321		68.359375
7322		64.453125
7323		68.359375
7324		64.453125
7325		70.312500
7326		64.453125
7327		70.312500
7328		66.406250
7329		68.359375
7330		66.406250
7331		68.359375
7332		66.406250
7333		68.359375
7334		64.453125
7335		68.359375
7336		64.453125
7337		68.359375
7338		64.453125
7339		66.406250
7340		62.500000
7341		66.406250
7342		60.546875
7343		66.406250
7344		60.546875
7345		64.453125
7346		58.593750
7347		62.500000
7348		58.593750
7349		60.546875
7350		56.640625
7351		60.546875
7352		54.687500
7353		58.593750
7354		52.734375
7355		56.640625
7356		50.781250
7357		54.687500
7358		48.828125
7359		52.734375
7360		46.875000
7361		50.781250
7362		44.921875
7363		50.781250
7364		42.968750
7365		48.828125
7366		39.062500
7367		44.921875
7368		37.109375
7369		42.968750
7370		35.156250
7371		41.015625
7372		33.203125
7373		37.109375
7374		29.296875
7375		35.156250
7376		27.343750
7377		31.250000
7378		25.390625
7379		29.296875
7380		21.484375
7381		25.390625
7382		19.531250
7383		23.437500
7384		15.625000
7385		21.484375
7386		13.671875
7387		17.578125
7388		9.765625
7389		15.625000
7390		7.812500
7391		11.718750
7392		5.859375
7393		9.765625
7394		1.953125
7395		5.859375
7396		-1.953125
7397		3.906250
7398		-3.906250
7399		1.953125
7400		-5.859375
7401		-1.953125
7402		-9.765625
7403		-3.906250
7404		-11.718750
7405		-7.812500
7406		-15.625000
7407		-9.765625
7408		-17.578125
7409		-13.671875
7410		-19.531250
7411		-15.625000
7412		-23.437500
7413		-17.578125
7414		-25.390625
7415		-19.531250
7416		-27.343750
7417		-23.437500
7418		-29.296875
7419		-25.390625
7420		-33.203125
7421		-27.343750
7422		-33.203125
7423		-29.296875
7424		-35.156250
7425		-31.250000
7426		-37.109375
7427		-33.203125
7428		-39.062500
7429		-35.156250
7430		-41.015625
7431		-37.109375
7432		-42.968750
7433		-39.062500
7434		-44.921875
7435		-41.015625
7436		-44.921875
7437		-41.015625
7438		-46.875000
7439		-42.968750
7440		-46.875000
7441		-42.968750
7442		-48.828125
7443		-44.921875
7444		-48.828125
7445		-44.921875
7446		-48.828125
7447		-44.921875
7448		-48.828125
7449		-44.921875
7450		-48.828125
7451		-46.875000
7452		-48.828125
7453		-46.875000
7454		-48.828125
7455		-46.875000
7456		-48.828125
7457		-44.921875
7458		-48.828125
7459		-44.921875
7460		-48.828125
7461		-44.921875
7462		-46.875000
7463		-44.921875
7464		-46.875000
7465		-42.968750
7466		-44.921875
7467		-41.015625
7468		-44.921875
7469		-41.015625
7470		-42.968750
7471		-39.062500
7472		-41.015625
7473		-37.109375
7474		-41.015625
7475		-37.109375
7476		-39.062500
7477		-35.156250
7478		-37.109375
7479		-33.203125
7480		-35.156250
7481		-29.296875
7482		-33.203125
7483		-27.343750
7484		-29.296875
7485		-25.390625
7486		-27.343750
7487		-23.437500
7488		-25.390625
7489		-21.484375
7490		-23.437500
7491		-19.531250
7492		-21.484375
7493		-15.625000
7494		-17.578125
7495		-13.671875
7496		-15.625000
7497		-11.718750
7498		-13.671875
7499		-7.812500
7500		-9.765625
7501		-5.859375
7502		-7.812500
7503		-1.953125
7504		-3.906250
7505		0.000000
7506		-1.953125
7507		1.953125
7508		1.953125
7509		5.859375
7510		3.906250
7511		7.812500
7512		7.812500
7513		11.718750
7514		9.765625
7515		13.671875
7516		13.671875
7517		17.578125
7518		15.625000
7519		19.531250
7520		17.578125
7521		23.437500
7522		19.531250
7523		25.390625
7524		23.437500
7525		29.296875
7526		27.343750
7527		31.250000
7528		29.296875
7529		33.203125
7530		31.250000
7531		35.156250
7532		33.203125
7533		39.062500
7534		35.156250
7535		41.015625
7536		39.062500
7537		42.968750
7538		41.015625
7539		46.875000
7540		42.968750
7541		48.828125
7542		46.875000
7543		50.781250
7544		46.875000
7545		52.734375
7546		50.781250
7547		54.687500
7548		50.781250
7549		56.640625
7550		54.687500
7551		58.593750
7552		56.640625
7553		58.593750
7554		56.640625
7555		60.546875
7556		58.593750
7557		62.500000
7558		60.546875
7559		64.453125
7560		60.546875
7561		64.453125
7562		62.500000
7563		64.453125
7564		62.500000
7565		66.406250
7566		64.453125
7567		66.406250
7568		64.453125
7569		68.359375
7570		64.453125
7571		68.359375
7572		66.406250
7573		68.359375
7574		66.406250
7575		70.312500
7576		64.453125
7577		70.312500
7578		66.406250
7579		70.312500
7580		66.406250
7581		68.359375
7582		64.453125
7583		70.312500
7584		64.453125
7585		68.359375
7586		64.453125
7587		68.359375
7588		64.453125
7589		66.406250
7590		62.500000
7591		66.406250
7592		62.500000
7593		66.406250
7594		60.546875
7595		64.453125
7596		60.546875
7597		62.500000
7598		58.593750
7599		62.500000
7600		56.640625
7601		60.546875
7602		54.687500
7603		58.593750
7604		54.687500
7605		56.640625
7606		52.734375
7607		56.640625
7608		50.781250
7609		54.687500
7610		48.828125
7611		52.734375
7612		46.875000
7613		50.781250
7614		44.921875
7615		48.828125
7616		41.015625
7617		46.875000
7618		39.062500
7619		44.921875
7620		37.109375
7621		41.015625
7622		35.156250
7623		39.062500
7624		31.250000
7625		37.109375
7626		29.296875
7627		35.156250
7628		27.343750
7629		31.250000
7630		23.437500
7631		29.296875
7632		21.484375
7633		25.390625
7634		17.578125
7635		23.437500
7636		15.625000
7637		19.531250
7638		11.718750
7639		17.578125
7640		9.765625
7641		13.671875
7642		5.859375
7643		11.718750
7644		3.906250
7645		7.812500
7646		1.953125
7647		5.859375
7648		-1.953125
7649		1.953125
7650		-3.906250
7651		0.000000
7652		-7.812500
7653		-1.953125
7654		-9.765625
7655		-5.859375
7656		-13.671875
7657		-7.812500
7658		-15.625000
7659		-11.718750
7660		-19.531250
7661		-13.671875
7662		-21.484375
7663		-17.578125
7664		-23.437500
7665		-19.531250
7666		-27.343750
7667		-21.484375
7668		-27.343750
7669		-23.437500
7670		-29.296875
7671		-25.390625
7672		-33.203125
7673		-29.296875
7674		-35.156250
7675		-31.250000
7676		-37.109375
7677		-33.203125
7678		-39.062500
7679		-33.203125
7680		-39.062500
7681		-37.109375
7682		-41.015625
7683		-37.109375
7684		-42.968750
7685		-39.062500
7686		-44.921875
7687		-41.015625
7688		-44.921875
7689		-42.968750
7690		-46.875000
7691		-42.968750
7692		-46.875000
7693		-42.968750
7694		-48.828125
7695		-44.921875
7696		-48.828125
7697		-44.921875
7698		-48.828125
7699		-46.875000
7700		-50.781250
7701		-46.875000
7702		-48.828125
7703		-46.875000
7704		-50.781250
7705		-46.875000
7706		-50.781250
7707		-44.921875
7708		-48.828125
7709		-44.921875
7710		-48.828125
7711		-44.921875
7712		-48.828125
7713		-44.921875
7714		-46.875000
7715		-44.921875
7716		-46.875000
7717		-42.968750
7718		-44.921875
7719		-41.015625
7720		-44.921875
7721		-41.015625
7722		-42.968750
7723		-39.062500
7724		-41.015625
7725		-37.109375
7726		-41.015625
7727		-35.156250
7728		-39.062500
7729		-33.203125
7730		-35.156250
7731		-33.203125
7732		-35.156250
7733		-29.296875
7734		-33.203125
7735		-27.343750
7736		-29.296875
7737		-25.390625
7738		-27.343750
7739		-23.437500
7740		-25.390625
7741		-21.484375
7742		-23.437500
7743		-17.578125
7744		-21.484375
7745		-15.625000
7746		-17.578125
7747		-13.671875
7748		-15.625000
7749		-9.765625
7750		-13.671875
7751		-7.812500
7752		-9.765625
7753		-5.859375
7754		-7.812500
7755		-1.953125
7756		-3.906250
7757		0.000000
7758		-1.953125
7759		3.906250
7760		1.953125
7761		5.859375
7762		3.906250
7763		7.812500
7764		7.812500
7765		11.718750
7766		9.765625
7767		15.625000
7768		13.671875
7769		17.578125
7770		15.625000
7771		21.484375
7772		19.531250
7773		23.437500
7774		21.484375
7775		25.390625
7776		25.390625
7777		29.296875
7778		25.390625
7779		31.250000
7780		29.296875
7781		33.203125
7782		33.203125
7783		37.109375
7784		33.203125
7785		39.062500
7786		37.109375
7787		42.968750
7788		39.062500
7789		44.921875
7790		42.968750
7791		46.875000
7792		42.968750
7793		48.828125
7794		46.875000
7795		50.781250
7796		46.875000
7797		52.734375
7798		50.781250
7799		54.687500
7800		52.734375
7801		56.640625
7802		52.734375
7803		58.593750
7804		54.687500
7805		58.593750
7806		56.640625
7807		60.546875
7808		58.593750
7809		62.500000
7810		58.593750
7811		62.500000
7812		60.546875
7813		64.453125
7814		62.500000
7815		64.453125
7816		62.500000
7817		66.406250
7818		64.453125
7819		66.406250
7820		64.453125
7821		66.406250
7822		64.453125
7823		68.359375
7824		66.406250
7825		68.359375
7826		66.406250
7827		68.359375
7828		64.453125
7829		70.312500
7830		66.406250
7831		68.359375
7832		66.406250
7833		68.359375
7834		64.453125
7835		68.359375
7836		64.453125
7837		68.359375
7838		64.453125
7839		68.359375
7840		64.453125
7841		66.406250
7842		62.500000
7843		66.406250
7844		62.500000
7845		64.453125
7846		60.546875
7847		64.453125
7848		60.546875
7849		62.500000
7850		56.640625
7851		62.500000
7852		56.640625
7853		60.546875
7854		54.687500
7855		58.593750
7856		52.734375
7857		56.640625
7858		50.781250
7859		56.640625
7860		50.781250
7861		52.734375
7862		46.875000
7863		52.734375
7864		44.921875
7865		48.828125
7866		42.968750
7867		46.875000
7868		41.015625
7869		46.875000
7870		39.062500
7871		42.968750
7872		37.109375
7873		41.015625
7874		33.203125
7875		39.062500
7876		31.250000
7877		35.156250
7878		29.296875
7879		33.203125
7880		25.390625
7881		31.250000
7882		23.437500
7883		27.343750
7884		21.484375
7885		25.390625
7886		17.578125
7887		23.437500
7888		15.625000
7889		19.531250
7890		11.718750
7891		15.625000
7892		9.765625
7893		13.671875
7894		5.859375
7895		11.718750
7896		3.906250
7897		7.812500
7898		0.000000
7899		3.906250
7900		-3.906250
7901		1.953125
7902		-5.859375
7903		0.000000
7904		-7.812500
7905		-3.906250
7906		-11.718750
7907		-5.859375
7908		-13.671875
7909		-9.765625
7910		-17.578125
7911		-11.718750
7912		-19.531250
7913		-13.671875
7914		-21.484375
7915		-17.578125
7916		-23.437500
7917		-19.531250
7918		-27.343750
7919		-21.484375
7920		-29.296875
7921		-23.437500
7922		-31.250000
7923		-27.343750
7924		-33.203125
7925		-29.296875
7926		-35.156250
7927		-31.250000
7928		-37.109375
7929		-33.203125
7930		-39.062500
7931		-35.156250
7932		-41.015625
7933		-37.109375
7934		-42.968750
7935		-39.062500
7936		-42.968750
7937		-39.062500
7938		-44.921875
7939		-41.015625
7940		-44.921875
7941		-41.015625
7942		-46.875000
7943		-42.968750
7944		-46.875000
7945		-42.968750
7946		-48.828125
7947		-44.921875
7948		-48.828125
7949		-44.921875
7950		-48.828125
7951		-46.875000
7952		-48.828125
7953		-46.875000
7954		-50.781250
7955		-44.921875
7956		-50.781250
7957		-46.875000
7958		-50.781250
7959		-44.921875
7960		-48.828125
7961		-44.921875
7962		-48.828125
7963		-44.921875
7964		-48.828125
7965		-44.921875
7966		-46.875000
7967		-42.968750
7968		-46.875000
7969		-42.968750
7970		-44.921875
7971		-41.015625
7972		-44.921875
7973		-41.015625
7974		-42.968750
7975		-39.062500
7976		-41.015625
7977		-37.109375
7978		-39.062500
7979		-35.156250
7980		-37.109375
7981		-33.203125
7982		-35.156250
7983		-31.250000
7984		-33.203125
7985		-29.296875
7986		-33.203125
7987		-27.343750
7988		-29.296875
7989		-25.390625
7990		-27.343750
7991		-23.437500
7992		-25.390625
7993		-21.484375
7994		-23.437500
7995		-17.578125
7996		-19.531250
7997		-13.671875
7998		-17.578125
7999		-13.671875
8000		-15.625000
8001		-9.765625
8002		-11.718750
8003		-7.812500
8004		-9.765625
8005		-3.906250
8006		-5.859375
8007		-1.953125
8008		-3.906250
8009		1.953125
8010		0.000000
8011		3.906250
8012		1.953125
8013		5.859375
8014		3.906250
8015		9.765625
8016		7.812500
8017		11.718750
8018		11.718750
8019		15.625000
8020		13.671875
8021		17.578125
8022		17.578125
8023		21.484375
8024		19.531250
8025		23.437500
8026		21.484375
8027		27.343750
8028		25.390625
8029		29.296875
8030		27.343750
8031		33.203125
8032		31.250000
8033		35.156250
8034		33.203125
8035		37.109375
8036		35.156250
8037		39.062500
8038		39.062500
8039		42.968750
8040		41.015625
8041		44.921875
8042		42.968750
8043		46.875000
8044		44.921875
8045		48.828125
8046		46.875000
8047		50.781250
8048		48.828125
8049		52.734375
8050		50.781250
8051		54.687500
8052		52.734375
8053		56.640625
8054		54.687500
8055		58.593750
8056		56.640625
8057		60.546875
8058		56.640625
8059		60.546875
8060		58.593750
8061		62.500000
8062		60.546875
8063		64.453125
8064		60.546875
8065		64.453125
8066		62.500000
8067		66.406250
8068		64.453125
8069		66.406250
8070		62.500000
8071		68.359375
8072		64.453125
8073		68.359375
8074		64.453125
8075		68.359375
8076		64.453125
8077		68.359375
8078		66.406250
8079		68.359375
8080		64.453125
8081		70.312500
8082		64.453125
8083		68.359375
8084		66.406250
8085		68.359375
8086		64.453125
8087		68.359375
8088		64.453125
8089		68.359375
8090		64.453125
8091		66.406250
8092		62.500000
8093		68.359375
8094		62.500000
8095		66.406250
8096		60.546875
8097		64.453125
8098		60.546875
8099		64.453125
8100		60.546875
8101		62.500000
8102		56.640625
8103		62.500000
8104		56.640625
8105		60.546875
8106		54.687500
8107		58.593750
8108		52.734375
8109		58.593750
8110		50.781250
8111		54.687500
8112		48.828125
8113		52.734375
8114		46.875000
8115		50.781250
8116		44.921875
8117		48.828125
8118		42.968750
8119		46.875000
8120		41.015625
8121		44.921875
8122		39.062500
8123		42.968750
8124		35.156250
8125		41.015625
8126		33.203125
8127		37.109375
8128		31.250000
8129		37.109375
8130		27.343750
8131		33.203125
8132		25.390625
8133		29.296875
8134		23.437500
8135		27.343750
8136		19.531250
8137		25.390625
8138		17.578125
8139		21.484375
8140		13.671875
8141		19.531250
8142		11.718750
8143		15.625000
8144		7.812500
8145		13.671875
8146		5.859375
8147		9.765625
8148		1.953125
8149		7.812500
8150		0.000000
8151		3.906250
8152		-3.906250
8153		1.953125
8154		-5.859375
8155		-1.953125
8156		-9.765625
8157		-3.906250
8158		-11.718750
8159		-7.812500
8160		-15.625000
8161		-9.765625
8162		-17.578125
8163		-11.718750
8164		-19.531250
8165		-13.671875
8166		-21.484375
8167		-15.625000
8168		-25.390625
8169		-19.531250
8170		-27.343750
8171		-23.437500
8172		-29.296875
8173		-23.437500
8174		-31.250000
8175		-27.343750
8176		-33.203125
8177		-29.296875
8178		-35.156250
8179		-31.250000
8180		-37.109375
8181		-33.203125
8182		-39.062500
8183		-35.156250
8184		-41.015625
8185		-37.109375
8186		-42.968750
8187		-39.062500
8188		-44.921875
8189		-39.062500
8190		-44.921875
8191		-41.015625
8192		-46.875000
8193		-42.968750
8194		-46.875000
8195		-42.968750
8196		-46.875000
8197		-44.921875
8198		-48.828125
8199		-44.921875
8200		-48.828125
8201		-46.875000
8202		-48.828125
8203		-46.875000
8204		-48.828125
8205		-44.921875
8206		-48.828125
8207		-46.875000
8208		-48.828125
8209		-46.875000
8210		-50.781250
8211		-46.875000
8212		-48.828125
8213		-44.921875
8214		-48.828125
8215		-44.921875
8216		-48.828125
8217		-44.921875
8218		-46.875000
8219		-42.968750
8220		-46.875000
8221		-41.015625
8222		-44.921875
8223		-41.015625
8224		-42.968750
8225		-39.062500
8226		-42.968750
8227		-39.062500
8228		-41.015625
8229		-37.109375
8230		-39.062500
8231		-35.156250
8232		-37.109375
8233		-33.203125
8234		-35.156250
8235		-31.250000
8236		-33.203125
8237		-29.296875
8238		-33.203125
8239		-27.343750
8240		-29.296875
8241		-25.390625
8242		-27.343750
8243		-21.484375
8244		-23.437500
8245		-17.578125
8246		-21.484375
8247		-17.578125
8248		-19.531250
8249		-15.625000
8250		-17.578125
8251		-11.718750
8252		-13.671875
8253		-9.765625
8254		-11.718750
8255		-5.859375
8256		-7.812500
8257		-3.906250
8258		-5.859375
8259		-1.953125
8260		-3.906250
8261		1.953125
8262		0.000000
8263		3.906250
8264		1.953125
8265		7.812500
8266		5.859375
8267		9.765625
8268		7.812500
8269		13.671875
8270		11.718750
8271		17.578125
8272		13.671875
8273		19.531250
8274		17.578125
8275		21.484375
8276		19.531250
8277		25.390625
8278		23.437500
8279		27.343750
8280		25.390625
8281		31.250000
8282		27.343750
8283		33.203125
8284		31.250000
8285		35.156250
8286		33.203125
8287		37.109375
8288		35.156250
8289		41.015625
8290		39.062500
8291		42.968750
8292		41.015625
8293		44.921875
8294		42.968750
8295		46.875000
8296		44.921875
8297		48.828125
8298		46.875000
8299		50.781250
8300		48.828125
8301		52.734375
8302		50.781250
8303		54.687500
8304		52.734375
8305		56.640625
8306		54.687500
8307		58.593750
8308		54.687500
8309		60.546875
8310		58.593750
8311		62.500000
8312		58.593750
8313		62.500000
8314		60.546875
8315		64.453125
8316		60.546875
8317		66.406250
8318		62.500000
8319		66.406250
8320		62.500000
8321		66.406250
8322		62.500000
8323		68.359375
8324		64.453125
8325		68.359375
8326		64.453125
8327		68.359375
8328		66.406250
8329		68.359375
8330		66.406250
8331		68.359375
8332		64.453125
8333		70.312500
8334		64.453125
8335		70.312500
8336		66.406250
8337		68.359375
8338		64.453125
8339		68.359375
8340		64.453125
8341		68.359375
8342		64.453125
8343		66.406250
8344		62.500000
8345		66.406250
8346		62.500000
8347		66.406250
8348		60.546875
8349		64.453125
8350		58.593750
8351		64.453125
8352		58.593750
8353		62.500000
8354		56.640625
8355		62.500000
8356		56.640625
8357		60.546875
8358		54.687500
8359		58.593750
8360		52.734375
8361		56.640625
8362		50.781250
8363		54.687500
8364		48.828125
8365		52.734375
8366		44.921875
8367		50.781250
8368		44.921875
8369		48.828125
8370		42.968750
8371		46.875000
8372		39.062500
8373		44.921875
8374		37.109375
8375		42.968750
8376		35.156250
8377		39.062500
8378		33.203125
8379		37.109375
8380		29.296875
8381		35.156250
8382		27.343750
8383		31.250000
8384		25.390625
8385		29.296875
8386		21.484375
8387		27.343750
8388		17.578125
8389		23.437500
8390		15.625000
8391		21.484375
8392		13.671875
8393		19.531250
8394		9.765625
8395		15.625000
8396		7.812500
8397		11.718750
8398		3.906250
8399		9.765625
8400		1.953125
8401		7.812500
8402		0.000000
8403		3.906250
8404		-3.906250
8405		0.000000
8406		-5.859375
8407		-1.953125
8408		-9.765625
8409		-5.859375
8410		-11.718750
8411		-7.812500
8412		-15.625000
8413		-9.765625
8414		-17.578125
8415		-13.671875
8416		-19.531250
8417		-15.625000
8418		-23.437500
8419		-17.578125
8420		-25.390625
8421		-21.484375
8422		-27.343750
8423		-23.437500
8424		-29.296875
8425		-25.390625
8426		-33.203125
8427		-27.343750
8428		-35.156250
8429		-29.296875
8430		-37.109375
8431		-31.250000
8432		-39.062500
8433		-33.203125
8434		-41.015625
8435		-35.156250
8436		-41.015625
8437		-37.109375
8438		-42.968750
8439		-39.062500
8440		-44.921875
8441		-41.015625
8442		-44.921875
8443		-41.015625
8444		-46.875000
8445		-42.968750
8446		-46.875000
8447		-42.968750
8448		-48.828125
8449		-44.921875
8450		-48.828125
8451		-44.921875
8452		-48.828125
8453		-46.875000
8454		-48.828125
8455		-46.875000
8456		-50.781250
8457		-46.875000
8458		-48.828125
8459		-46.875000
8460		-50.781250
8461		-44.921875
8462		-48.828125
8463		-46.875000
8464		-48.828125
8465		-44.921875
8466		-48.828125
8467		-44.921875
8468		-46.875000
8469		-42.968750
8470		-46.875000
8471		-42.968750
8472		-46.875000
8473		-41.015625
8474		-44.921875
8475		-41.015625
8476		-44.921875
8477		-39.062500
8478		-42.968750
8479		-39.062500
8480		-41.015625
8481		-35.156250
8482		-39.062500
8483		-35.156250
8484		-37.109375
8485		-33.203125
8486		-35.156250
8487		-31.250000
8488		-33.203125
8489		-29.296875
8490		-31.250000
8491		-25.390625
8492		-27.343750
8493		-23.437500
8494		-25.390625
8495		-21.484375
8496		-23.437500
8497		-19.531250
8498		-21.484375
8499		-17.578125
8500		-17.578125
8501		-13.671875
8502		-17.578125
8503		-11.718750
8504		-13.671875
8505		-9.765625
8506		-9.765625
8507		-5.859375
8508		-7.812500
8509		-3.906250
8510		-5.859375
8511		0.000000
8512		-1.953125
8513		3.906250
8514		0.000000
8515		5.859375
8516		3.906250
8517		9.765625
8518		5.859375
8519		11.718750
8520		9.765625
8521		13.671875
8522		11.718750
8523		17.578125
8524		13.671875
8525		19.531250
8526		17.578125
8527		23.437500
8528		21.484375
8529		25.390625
8530		23.437500
8531		29.296875
8532		25.390625
8533		31.250000
8534		27.343750
8535		35.156250
8536		31.250000
8537		37.109375
8538		35.156250
8539		39.062500
8540		37.109375
8541		41.015625
8542		39.062500
8543		44.921875
8544		41.015625
8545		44.921875
8546		42.968750
8547		48.828125
8548		42.968750
8549		50.781250
8550		48.828125
8551		52.734375
8552		48.828125
8553		54.687500
8554		52.734375
8555		54.687500
8556		54.687500
8557		58.593750
8558		52.734375
8559		60.546875
8560		54.687500
8561		62.500000
8562		56.640625
8563		64.453125
8564		58.593750
8565		64.453125
8566		60.546875
8567		66.406250
8568		60.546875
8569		66.406250
8570		62.500000
8571		66.406250
8572		64.453125
8573		66.406250
8574		62.500000
8575		70.312500
8576		62.500000
8577		70.312500
8578		64.453125
8579		70.312500
8580		64.453125
8581		70.312500
8582		64.453125
8583		70.312500
8584		64.453125
8585		70.312500
8586		66.406250
8587		70.312500
8588		66.406250
8589		68.359375
8590		62.500000
8591		70.312500
8592		62.500000
8593		70.312500
8594		62.500000
8595		70.312500
8596		62.500000
8597		68.359375
8598		60.546875
8599		68.359375
8600		58.593750
8601		66.406250
8602		58.593750
8603		64.453125
8604		58.593750
8605		62.500000
8606		56.640625
8607		60.546875
8608		54.687500
8609		60.546875
8610		52.734375
8611		60.546875
8612		50.781250
8613		58.593750
8614		48.828125
8615		56.640625
8616		46.875000
8617		54.687500
8618		44.921875
8619		52.734375
8620		44.921875
8621		48.828125
8622		42.968750
8623		46.875000
8624		39.062500
8625		44.921875
8626		35.156250
8627		42.968750
8628		33.203125
8629		41.015625
8630		29.296875
8631		39.062500
8632		27.343750
8633		37.109375
8634		25.390625
8635		33.203125
8636		23.437500
8637		31.250000
8638		21.484375
8639		25.390625
8640		17.578125
8641		23.437500
8642		13.671875
8643		21.484375
8644		11.718750
8645		19.531250
8646		7.812500
8647		17.578125
8648		5.859375
8649		13.671875
8650		1.953125
8651		11.718750
8652		0.000000
8653		7.812500
8654		-1.953125
8655		1.953125
8656		-3.906250
8657		0.000000
8658		-7.812500
8659		-1.953125
8660		-11.718750
8661		-3.906250
8662		-13.671875
8663		-5.859375
8664		-17.578125
8665		-9.765625
8666		-19.531250
8667		-11.718750
8668		-23.437500
8669		-13.671875
8670		-23.437500
8671		-17.578125
8672		-25.390625
8673		-21.484375
8674		-31.250000
8675		-23.437500
8676		-33.203125
8677		-25.390625
8678		-35.156250
8679		-25.390625
8680		-37.109375
8681		-29.296875
8682		-39.062500
8683		-29.296875
8684		-41.015625
8685		-31.250000
8686		-41.015625
8687		-35.156250
8688		-41.015625
8689		-37.109375
8690		-42.968750
8691		-39.062500
8692		-46.875000
8693		-39.062500
8694		-46.875000
8695		-41.015625
8696		-48.828125
8697		-41.015625
8698		-48.828125
8699		-41.015625
8700		-50.781250
8701		-42.968750
8702		-50.781250
8703		-42.968750
8704		-48.828125
8705		-44.921875
8706		-48.828125
8707		-46.875000
8708		-50.781250
8709		-44.921875
8710		-50.781250
8711		-44.921875
8712		-52.734375
8713		-44.921875
8714		-50.781250
8715		-42.968750
8716		-50.781250
8717		-42.968750
8718		-50.781250
8719		-42.968750
8720		-48.828125
8721		-42.968750
8722		-46.875000
8723		-42.968750
8724		-44.921875
8725		-39.062500
8726		-44.921875
8727		-39.062500
8728		-44.921875
8729		-37.109375
8730		-42.968750
8731		-35.156250
8732		-41.015625
8733		-33.203125
8734		-41.015625
8735		-31.250000
8736		-39.062500
8737		-31.250000
8738		-33.203125
8739		-31.250000
8740		-33.203125
8741		-27.343750
8742		-31.250000
8743		-23.437500
8744		-29.296875
8745		-21.484375
8746		-27.343750
8747		-19.531250
8748		-25.390625
8749		-17.578125
8750		-23.437500
8751		-13.671875
8752		-19.531250
8753		-11.718750
8754		-17.578125
8755		-9.765625
8756		-11.718750
8757		-7.812500
8758		-9.765625
8759		-1.953125
8760		-9.765625
8761		0.000000
8762		-5.859375
8763		1.953125
8764		-3.906250
8765		5.859375
8766		0.000000
8767		7.812500
8768		1.953125
8769		11.718750
8770		3.906250
8771		11.718750
8772		9.765625
8773		15.625000
8774		13.671875
8775		17.578125
8776		13.671875
8777		23.437500
8778		15.625000
8779		25.390625
8780		19.531250
8781		27.343750
8782		23.437500
8783		31.250000
8784		25.390625
8785		33.203125
8786		27.343750
8787		35.156250
8788		31.250000
8789		37.109375
8790		35.156250
8791		39.062500
8792		37.109375
8793		42.968750
8794		37.109375
8795		46.875000
8796		41.015625
8797		48.828125
8798		42.968750
8799		50.781250
8800		42.968750
8801		52.734375
8802		46.875000
8803		54.687500
8804		48.828125
8805		54.687500
8806		52.734375
8807		56.640625
8808		54.687500
8809		60.546875
8810		54.687500
8811		60.546875
8812		54.687500
8813		62.500000
8814		56.640625
8815		64.453125
8816		56.640625
8817		64.453125
8818		58.593750
8819		66.406250
8820		60.546875
8821		68.359375
8822		62.500000
8823		66.406250
8824		64.453125
8825		66.406250
8826		62.500000
8827		70.312500
8828		62.500000
8829		70.312500
8830		64.453125
8831		70.312500
8832		62.500000
8833		72.265625
8834		64.453125
8835		72.265625
8836		64.453125
8837		70.312500
8838		64.453125
8839		70.312500
8840		66.406250
8841		68.359375
8842		62.500000
8843		70.312500
8844		62.500000
8845		70.312500
8846		60.546875
8847		68.359375
8848		60.546875
8849		68.359375
8850		60.546875
8851		68.359375
8852		58.593750
8853		66.406250
8854		58.593750
8855		66.406250
8856		58.593750
8857		62.500000
8858		56.640625
8859		60.546875
8860		52.734375
8861		62.500000
8862		50.781250
8863		60.546875
8864		48.828125
8865		56.640625
8866		48.828125
8867		56.640625
8868		46.875000
8869		54.687500
8870		44.921875
8871		52.734375
8872		44.921875
8873		48.828125
8874		42.968750
8875		44.921875
8876		39.062500
8877		44.921875
8878		35.156250
8879		42.968750
8880		33.203125
8881		39.062500
8882		31.250000
8883		37.109375
8884		27.343750
8885		35.156250
8886		25.390625
8887		33.203125
8888		23.437500
8889		29.296875
8890		21.484375
8891		25.390625
8892		15.625000
8893		23.437500
8894		13.671875
8895		23.437500
8896		9.765625
8897		19.531250
8898		7.812500
8899		15.625000
8900		3.906250
8901		11.718750
8902		1.953125
8903		9.765625
8904		0.000000
8905		7.812500
8906		-1.953125
8907		1.953125
8908		-3.906250
8909		0.000000
8910		-9.765625
8911		-1.953125
8912		-11.718750
8913		-3.906250
8914		-15.625000
8915		-7.812500
8916		-17.578125
8917		-9.765625
8918		-19.531250
8919		-11.718750
8920		-23.437500
8921		-15.625000
8922		-25.390625
8923		-17.578125
8924		-25.390625
8925		-21.484375
8926		-29.296875
8927		-23.437500
8928		-31.250000
8929		-23.437500
8930		-35.156250
8931		-25.390625
8932		-37.109375
8933		-29.296875
8934		-39.062500
8935		-31.250000
8936		-41.015625
8937		-33.203125
8938		-42.968750
8939		-35.156250
8940		-41.015625
8941		-39.062500
8942		-42.968750
8943		-39.062500
8944		-46.875000
8945		-39.062500
8946		-46.875000
8947		-41.015625
8948		-48.828125
8949		-41.015625
8950		-48.828125
8951		-42.968750
8952		-50.781250
8953		-42.968750
8954		-50.781250
8955		-42.968750
8956		-48.828125
8957		-44.921875
8958		-48.828125
8959		-46.875000
8960		-52.734375
8961		-44.921875
8962		-50.781250
8963		-44.921875
8964		-50.781250
8965		-42.968750
8966		-50.781250
8967		-42.968750
8968		-50.781250
8969		-42.968750
8970		-48.828125
8971		-42.968750
8972		-48.828125
8973		-42.968750
8974		-44.921875
8975		-42.968750
8976		-44.921875
8977		-39.062500
8978		-44.921875
8979		-39.062500
8980		-44.921875
8981		-37.109375
8982		-42.968750
8983		-35.156250
8984		-41.015625
8985		-33.203125
8986		-39.062500
8987		-31.250000
8988		-37.109375
8989		-29.296875
8990		-33.203125
8991		-29.296875
8992		-31.250000
8993		-27.343750
8994		-31.250000
8995		-23.437500
8996		-29.296875
8997		-19.531250
8998		-27.343750
8999		-17.578125
9000		-25.390625
9001		-15.625000
9002		-21.484375
9003		-13.671875
9004		-19.531250
9005		-9.765625
9006		-15.625000
9007		-9.765625
9008		-11.718750
9009		-7.812500
9010		-9.765625
9011		-1.953125
9012		-7.812500
9013		0.000000
9014		-5.859375
9015		3.906250
9016		-3.906250
9017		5.859375
9018		0.000000
9019		9.765625
9020		3.906250
9021		11.718750
9022		5.859375
9023		13.671875
9024		11.718750
9025		15.625000
9026		13.671875
9027		17.578125
9028		15.625000
9029		23.437500
9030		17.578125
9031		25.390625
9032		21.484375
9033		29.296875
9034		23.437500
9035		31.250000
9036		25.390625
9037		35.156250
9038		29.296875
9039		37.109375
9040		33.203125
9041		37.109375
9042		35.156250
9043		39.062500
9044		37.109375
9045		44.921875
9046		39.062500
9047		46.875000
9048		41.015625
9049		50.781250
9050		42.968750
9051		50.781250
9052		44.921875
9053		52.734375
9054		46.875000
9055		54.687500
9056		48.828125
9057		54.687500
9058		52.734375
9059		56.640625
9060		54.687500
9061		58.593750
9062		52.734375
9063		62.500000
9064		54.687500
9065		62.500000
9066		56.640625
9067		64.453125
9068		58.593750
9069		66.406250
9070		58.593750
9071		66.406250
9072		60.546875
9073		68.359375
9074		64.453125
9075		66.406250
9076		64.453125
9077		68.359375
9078		62.500000
9079		70.312500
9080		62.500000
9081		70.312500
9082		64.453125
9083		70.312500
9084		64.453125
9085		70.312500
9086		64.453125
9087		70.312500
9088		64.453125
9089		72.265625
9090		64.453125
9091		70.312500
9092		66.406250
9093		68.359375
9094		64.453125
9095		70.312500
9096		62.500000
9097		70.312500
9098		62.500000
9099		68.359375
9100		60.546875
9101		68.359375
9102		60.546875
9103		68.359375
9104		58.593750
9105		66.406250
9106		58.593750
9107		66.406250
9108		58.593750
9109		62.500000
9110		56.640625
9111		60.546875
9112		52.734375
9113		60.546875
9114		52.734375
9115		60.546875
9116		50.781250
9117		58.593750
9118		48.828125
9119		56.640625
9120		44.921875
9121		54.687500
9122		42.968750
9123		52.734375
9124		42.968750
9125		50.781250
9126		41.015625
9127		44.921875
9128		37.109375
9129		44.921875
9130		35.156250
9131		42.968750
9132		31.250000
9133		41.015625
9134		29.296875
9135		39.062500
9136		25.390625
9137		35.156250
9138		23.437500
9139		33.203125
9140		21.484375
9141		29.296875
9142		19.531250
9143		25.390625
9144		17.578125
9145		21.484375
9146		13.671875
9147		21.484375
9148		9.765625
9149		19.531250
9150		5.859375
9151		15.625000
9152		3.906250
9153		13.671875
9154		0.000000
9155		9.765625
9156		-1.953125
9157		7.812500
9158		-1.953125
9159		1.953125
9160		-5.859375
9161		0.000000
9162		-11.718750
9163		-3.906250
9164		-13.671875
9165		-3.906250
9166		-15.625000
9167		-7.812500
9168		-19.531250
9169		-9.765625
9170		-21.484375
9171		-11.718750
9172		-23.437500
9173		-15.625000
9174		-23.437500
9175		-17.578125
9176		-25.390625
9177		-21.484375
9178		-31.250000
9179		-25.390625
9180		-33.203125
9181		-25.390625
9182		-35.156250
9183		-27.343750
9184		-37.109375
9185		-29.296875
9186		-39.062500
9187		-31.250000
9188		-41.015625
9189		-33.203125
9190		-41.015625
9191		-35.156250
9192		-41.015625
9193		-39.062500
9194		-42.968750
9195		-39.062500
9196		-46.875000
9197		-39.062500
9198		-46.875000
9199		-41.015625
9200		-48.828125
9201		-41.015625
9202		-48.828125
9203		-41.015625
9204		-50.781250
9205		-42.968750
9206		-50.781250
9207		-42.968750
9208		-50.781250
9209		-44.921875
9210		-48.828125
9211		-44.921875
9212		-50.781250
9213		-44.921875
9214		-50.781250
9215		-44.921875
9216		-50.781250
9217		-42.968750
9218		-50.781250
9219		-42.968750
9220		-50.781250
9221		-42.968750
9222		-48.828125
9223		-41.015625
9224		-48.828125
9225		-41.015625
9226		-44.921875
9227		-42.968750
9228		-44.921875
9229		-39.062500
9230		-44.921875
9231		-37.109375
9232		-44.921875
9233		-35.156250
9234		-42.968750
9235		-35.156250
9236		-41.015625
9237		-33.203125
9238		-39.062500
9239		-31.250000
9240		-37.109375
9241		-29.296875
9242		-33.203125
9243		-29.296875
9244		-31.250000
9245		-27.343750
9246		-29.296875
9247		-23.437500
9248		-29.296875
9249		-19.531250
9250		-25.390625
9251		-17.578125
9252		-23.437500
9253		-15.625000
9254		-21.484375
9255		-13.671875
9256		-19.531250
9257		-9.765625
9258		-15.625000
9259		-9.765625
9260		-11.718750
9261		-5.859375
9262		-7.812500
9263		-1.953125
9264		-7.812500
9265		0.000000
9266		-5.859375
9267		3.906250
9268		-1.953125
9269		5.859375
9270		1.953125
9271		9.765625
9272		3.906250
9273		11.718750
9274		5.859375
9275		13.671875
9276		11.718750
9277		15.625000
9278		13.671875
9279		19.531250
9280		15.625000
9281		23.437500
9282		17.578125
9283		27.343750
9284		21.484375
9285		29.296875
9286		23.437500
9287		33.203125
9288		25.390625
9289		35.156250
9290		29.296875
9291		37.109375
9292		31.250000
9293		39.062500
9294		37.109375
9295		41.015625
9296		39.062500
9297		44.921875
9298		39.062500
9299		46.875000
9300		41.015625
9301		48.828125
9302		42.968750
9303		50.781250
9304		44.921875
9305		52.734375
9306		46.875000
9307		54.687500
9308		48.828125
9309		56.640625
9310		52.734375
9311		56.640625
9312		54.687500
9313		58.593750
9314		54.687500
9315		62.500000
9316		56.640625
9317		64.453125
9318		56.640625
9319		64.453125
9320		58.593750
9321		66.406250
9322		60.546875
9323		66.406250
9324		60.546875
9325		68.359375
9326		62.500000
9327		66.406250
9328		64.453125
9329		66.406250
9330		62.500000
9331		70.312500
9332		62.500000
9333		72.265625
9334		64.453125
9335		70.312500
9336		64.453125
9337		70.312500
9338		64.453125
9339		72.265625
9340		64.453125
9341		70.312500
9342		64.453125
9343		70.312500
9344		66.406250
9345		68.359375
9346		62.500000
9347		70.312500
9348		62.500000
9349		70.312500
9350		62.500000
9351		70.312500
9352		60.546875
9353		68.359375
9354		60.546875
9355		66.406250
9356		58.593750
9357		66.406250
9358		56.640625
9359		64.453125
9360		58.593750
9361		60.546875
9362		56.640625
9363		60.546875
9364		52.734375
9365		60.546875
9366		50.781250
9367		58.593750
9368		48.828125
9369		56.640625
9370		46.875000
9371		54.687500
9372		44.921875
9373		52.734375
9374		42.968750
9375		50.781250
9376		42.968750
9377		48.828125
9378		41.015625
9379		44.921875
9380		37.109375
9381		42.968750
9382		33.203125
9383		42.968750
9384		31.250000
9385		39.062500
9386		29.296875
9387		37.109375
9388		27.343750
9389		35.156250
9390		23.437500
9391		31.250000
9392		21.484375
9393		29.296875
9394		19.531250
9395		23.437500
9396		15.625000
9397		21.484375
9398		11.718750
9399		21.484375
9400		7.812500
9401		17.578125
9402		5.859375
9403		15.625000
9404		3.906250
9405		11.718750
9406		0.000000
9407		9.765625
9408		-1.953125
9409		5.859375
9410		-3.906250
9411		1.953125
9412		-5.859375
9413		-1.953125
9414		-11.718750
9415		-3.906250
9416		-13.671875
9417		-5.859375
9418		-15.625000
9419		-7.812500
9420		-19.531250
9421		-9.765625
9422		-21.484375
9423		-13.671875
9424		-23.437500
9425		-15.625000
9426		-25.390625
9427		-17.578125
9428		-27.343750
9429		-23.437500
9430		-31.250000
9431		-25.390625
9432		-33.203125
9433		-25.390625
9434		-37.109375
9435		-27.343750
9436		-37.109375
9437		-29.296875
9438		-39.062500
9439		-31.250000
9440		-41.015625
9441		-33.203125
9442		-42.968750
9443		-35.156250
9444		-42.968750
9445		-39.062500
9446		-42.968750
9447		-41.015625
9448		-46.875000
9449		-41.015625
9450		-48.828125
9451		-41.015625
9452		-48.828125
9453		-41.015625
9454		-50.781250
9455		-42.968750
9456		-50.781250
9457		-42.968750
9458		-50.781250
9459		-42.968750
9460		-50.781250
9461		-44.921875
9462		-48.828125
9463		-46.875000
9464		-50.781250
9465		-44.921875
9466		-50.781250
9467		-42.968750
9468		-50.781250
9469		-42.968750
9470		-50.781250
9471		-42.968750
9472		-50.781250
9473		-42.968750
9474		-48.828125
9475		-41.015625
9476		-48.828125
9477		-41.015625
9478		-44.921875
9479		-41.015625
9480		-44.921875
9481		-41.015625
9482		-44.921875
9483		-37.109375
9484		-44.921875
9485		-35.156250
9486		-42.968750
9487		-35.156250
9488		-41.015625
9489		-31.250000
9490		-39.062500
9491		-31.250000
9492		-37.109375
9493		-29.296875
9494		-35.156250
9495		-27.343750
9496		-31.250000
9497		-27.343750
9498		-29.296875
9499		-23.437500
9500		-27.343750
9501		-19.531250
9502		-27.343750
9503		-17.578125
9504		-23.437500
9505		-15.625000
9506		-21.484375
9507		-11.718750
9508		-17.578125
9509		-9.765625
9510		-15.625000
9511		-7.812500
9512		-9.765625
9513		-5.859375
9514		-7.812500
9515		-1.953125
9516		-7.812500
9517		1.953125
9518		-3.906250
9519		3.906250
9520		-1.953125
9521		7.812500
9522		1.953125
9523		9.765625
9524		3.906250
9525		13.671875
9526		7.812500
9527		15.625000
9528		11.718750
9529		17.578125
9530		15.625000
9531		19.531250
9532		15.625000
9533		23.437500
9534		17.578125
9535		27.343750
9536		21.484375
9537		29.296875
9538		23.437500
9539		33.203125
9540		27.343750
9541		35.156250
9542		29.296875
9543		39.062500
9544		33.203125
9545		39.062500
9546		37.109375
9547		41.015625
9548		39.062500
9549		44.921875
9550		39.062500
9551		46.875000
9552		41.015625
9553		48.828125
9554		44.921875
9555		52.734375
9556		46.875000
9557		54.687500
9558		46.875000
9559		56.640625
9560		48.828125
9561		56.640625
9562		54.687500
9563		56.640625
9564		54.687500
9565		58.593750
9566		54.687500
9567		62.500000
9568		56.640625
9569		64.453125
9570		58.593750
9571		64.453125
9572		58.593750
9573		66.406250
9574		60.546875
9575		68.359375
9576		60.546875
9577		68.359375
9578		62.500000
9579		68.359375
9580		64.453125
9581		66.406250
9582		62.500000
9583		70.312500
9584		62.500000
9585		70.312500
9586		64.453125
9587		70.312500
9588		64.453125
9589		70.312500
9590		64.453125
9591		70.312500
9592		64.453125
9593		70.312500
9594		64.453125
9595		70.312500
9596		66.406250
9597		68.359375
9598		62.500000
9599		68.359375
9600		62.500000
9601		70.312500
9602		62.500000
9603		68.359375
9604		60.546875
9605		68.359375
9606		58.593750
9607		66.406250
9608		58.593750
9609		66.406250
9610		56.640625
9611		64.453125
9612		58.593750
9613		60.546875
9614		56.640625
9615		58.593750
9616		52.734375
9617		60.546875
9618		50.781250
9619		58.593750
9620		48.828125
9621		56.640625
9622		46.875000
9623		54.687500
9624		44.921875
9625		52.734375
9626		42.968750
9627		50.781250
9628		41.015625
9629		46.875000
9630		39.062500
9631		44.921875
9632		35.156250
9633		42.968750
9634		33.203125
9635		41.015625
9636		31.250000
9637		39.062500
9638		27.343750
9639		37.109375
9640		25.390625
9641		33.203125
9642		23.437500
9643		31.250000
9644		19.531250
9645		27.343750
9646		19.531250
9647		23.437500
9648		15.625000
9649		21.484375
9650		11.718750
9651		19.531250
9652		9.765625
9653		17.578125
9654		5.859375
9655		13.671875
9656		1.953125
9657		9.765625
9658		0.000000
9659		7.812500
9660		-3.906250
9661		5.859375
9662		-3.906250
9663		1.953125
9664		-7.812500
9665		-1.953125
9666		-11.718750
9667		-3.906250
9668		-15.625000
9669		-5.859375
9670		-17.578125
9671		-9.765625
9672		-19.531250
9673		-11.718750
9674		-21.484375
9675		-13.671875
9676		-25.390625
9677		-17.578125
9678		-27.343750
9679		-19.531250
9680		-27.343750
9681		-23.437500
9682		-31.250000
9683		-25.390625
9684		-35.156250
9685		-25.390625
9686		-35.156250
9687		-27.343750
9688		-39.062500
9689		-31.250000
9690		-41.015625
9691		-33.203125
9692		-42.968750
9693		-33.203125
9694		-44.921875
9695		-35.156250
9696		-42.968750
9697		-39.062500
9698		-42.968750
9699		-41.015625
9700		-48.828125
9701		-41.015625
9702		-48.828125
9703		-41.015625
9704		-48.828125
9705		-42.968750
9706		-50.781250
9707		-42.968750
9708		-50.781250
9709		-42.968750
9710		-50.781250
9711		-42.968750
9712		-50.781250
9713		-44.921875
9714		-48.828125
9715		-46.875000
9716		-50.781250
9717		-44.921875
9718		-52.734375
9719		-44.921875
9720		-50.781250
9721		-42.968750
9722		-50.781250
9723		-42.968750
9724		-50.781250
9725		-42.968750
9726		-48.828125
9727		-42.968750
9728		-48.828125
9729		-41.015625
9730		-44.921875
9731		-42.968750
9732		-44.921875
9733		-41.015625
9734		-44.921875
9735		-37.109375
9736		-44.921875
9737		-35.156250
9738		-42.968750
9739		-35.156250
9740		-41.015625
9741		-33.203125
9742		-39.062500
9743		-29.296875
9744		-37.109375
9745		-29.296875
9746		-35.156250
9747		-29.296875
9748		-29.296875
9749		-25.390625
9750		-29.296875
9751		-21.484375
9752		-27.343750
9753		-19.531250
9754		-25.390625
9755		-15.625000
9756		-23.437500
9757		-13.671875
9758		-19.531250
9759		-11.718750
9760		-17.578125
9761		-9.765625
9762		-15.625000
9763		-7.812500
9764		-9.765625
9765		-5.859375
9766		-7.812500
9767		-1.953125
9768		-7.812500
9769		1.953125
9770		-3.906250
9771		3.906250
9772		0.000000
9773		7.812500
9774		1.953125
9775		11.718750
9776		3.906250
9777		13.671875
9778		7.812500
9779		15.625000
9780		13.671875
9781		17.578125
9782		15.625000
9783		19.531250
9784		17.578125
9785		25.390625
9786		19.531250
9787		29.296875
9788		21.484375
9789		31.250000
9790		25.390625
9791		33.203125
9792		27.343750
9793		35.156250
9794		29.296875
9795		39.062500
9796		33.203125
9797		39.062500
9798		37.109375
9799		41.015625
9800		39.062500
9801		44.921875
9802		39.062500
9803		46.875000
9804		41.015625
9805		50.781250
9806		42.968750
9807		52.734375
9808		46.875000
9809		54.687500
9810		48.828125
9811		56.640625
9812		50.781250
9813		58.593750
9814		54.687500
9815		58.593750
9816		56.640625
9817		58.593750
9818		54.687500
9819		62.500000
9820		56.640625
9821		64.453125
9822		58.593750
9823		64.453125
9824		58.593750
9825		66.406250
9826		60.546875
9827		68.359375
9828		60.546875
9829		68.359375
9830		62.500000
9831		68.359375
9832		64.453125
9833		68.359375
9834		62.500000
9835		70.312500
9836		62.500000
9837		70.312500
9838		64.453125
9839		70.312500
9840		64.453125
9841		70.312500
9842		64.453125
9843		70.312500
9844		64.453125
9845		70.312500
9846		62.500000
9847		70.312500
9848		64.453125
9849		68.359375
9850		64.453125
9851		68.359375
9852		62.500000
9853		70.312500
9854		60.546875
9855		68.359375
9856		58.593750
9857		68.359375
9858		58.593750
9859		66.406250
9860		56.640625
9861		64.453125
9862		56.640625
9863		64.453125
9864		56.640625
9865		60.546875
9866		56.640625
9867		58.593750
9868		52.734375
9869		58.593750
9870		50.781250
9871		58.593750
9872		48.828125
9873		56.640625
9874		44.921875
9875		54.687500
9876		42.968750
9877		52.734375
9878		41.015625
9879		50.781250
9880		41.015625
9881		48.828125
9882		39.062500
9883		42.968750
9884		35.156250
9885		41.015625
9886		33.203125
9887		41.015625
9888		29.296875
9889		39.062500
9890		27.343750
9891		37.109375
9892		25.390625
9893		33.203125
9894		21.484375
9895		29.296875
9896		19.531250
9897		27.343750
9898		17.578125
9899		23.437500
9900		15.625000
9901		19.531250
9902		9.765625
9903		17.578125
9904		7.812500
9905		15.625000
9906		5.859375
9907		13.671875
9908		1.953125
9909		11.718750
9910		0.000000
9911		7.812500
9912		-3.906250
9913		3.906250
9914		-5.859375
9915		1.953125
9916		-7.812500
9917		-3.906250
9918		-13.671875
9919		-5.859375
9920		-15.625000
9921		-5.859375
9922		-17.578125
9923		-9.765625
9924		-19.531250
9925		-11.718750
9926		-23.437500
9927		-15.625000
9928		-25.390625
9929		-17.578125
9930		-27.343750
9931		-19.531250
9932		-27.343750
9933		-23.437500
9934		-31.250000
9935		-27.343750
9936		-35.156250
9937		-27.343750
9938		-37.109375
9939		-29.296875
9940		-39.062500
9941		-31.250000
9942		-39.062500
9943		-33.203125
9944		-42.968750
9945		-35.156250
9946		-44.921875
9947		-35.156250
9948		-42.968750
9949		-39.062500
9950		-44.921875
9951		-41.015625
9952		-46.875000
9953		-41.015625
9954		-48.828125
9955		-41.015625
9956		-48.828125
9957		-42.968750
9958		-50.781250
9959		-42.968750
9960		-50.781250
9961		-42.968750
9962		-50.781250
9963		-44.921875
9964		-50.781250
9965		-44.921875
9966		-48.828125
9967		-46.875000
9968		-50.781250
9969		-44.921875
9970		-50.781250
9971		-44.921875
9972		-50.781250
9973		-44.921875
9974		-50.781250
9975		-42.968750
9976		-50.781250
9977		-42.968750
9978		-48.828125
9979		-41.015625
9980		-48.828125
9981		-41.015625
9982		-44.921875
9983		-41.015625
9984		-42.968750
9985		-41.015625
9986		-44.921875
9987		-37.109375
9988		-42.968750
9989		-35.156250
9990		-41.015625
9991		-33.203125
9992		-41.015625
9993		-31.250000
9994		-37.109375
9995		-29.296875
9996		-37.109375
9997		-27.343750
9998		-35.156250
9999		-27.343750
10000		-29.296875
