Channel              :		CH1
Frequency            :		1.984kHz
Period               :		0.504ms
PK-PK                :		121.1mV
Probe attenuation    :		1X
Voltage per ADC value:		0.122070mV
Time interval        :		2.00000us

index		CH1_Voltage(mV)
1		56.640625
2		56.640625
3		54.687500
4		58.593750
5		54.687500
6		58.593750
7		54.687500
8		58.593750
9		56.640625
10		58.593750
11		56.640625
12		60.546875
13		56.640625
14		60.546875
15		58.593750
16		60.546875
17		58.593750
18		60.546875
19		58.593750
20		60.546875
21		58.593750
22		62.500000
23		58.593750
24		62.500000
25		58.593750
26		60.546875
27		56.640625
28		60.546875
29		56.640625
30		60.546875
31		56.640625
32		60.546875
33		54.687500
34		58.593750
35		54.687500
36		56.640625
37		52.734375
38		56.640625
39		52.734375
40		56.640625
41		50.781250
42		54.687500
43		48.828125
44		52.734375
45		48.828125
46		50.781250
47		46.875000
48		50.781250
49		44.921875
50		48.828125
51		42.968750
52		46.875000
53		41.015625
54		44.921875
55		39.062500
56		42.968750
57		37.109375
58		41.015625
59		35.156250
60		39.062500
61		31.250000
62		37.109375
63		31.250000
64		35.156250
65		27.343750
66		31.250000
67		25.390625
68		29.296875
69		23.437500
70		27.343750
71		21.484375
72		25.390625
73		17.578125
74		21.484375
75		15.625000
76		19.531250
77		13.671875
78		17.578125
79		9.765625
80		13.671875
81		7.812500
82		11.718750
83		3.906250
84		9.765625
85		1.953125
86		5.859375
87		-1.953125
88		3.906250
89		-3.906250
90		0.000000
91		-5.859375
92		-1.953125
93		-9.765625
94		-5.859375
95		-11.718750
96		-7.812500
97		-15.625000
98		-9.765625
99		-17.578125
100		-11.718750
101		-19.531250
102		-15.625000
103		-21.484375
104		-17.578125
105		-25.390625
106		-19.531250
107		-27.343750
108		-21.484375
109		-29.296875
110		-25.390625
111		-31.250000
112		-27.343750
113		-33.203125
114		-29.296875
115		-35.156250
116		-31.250000
117		-37.109375
118		-33.203125
119		-39.062500
120		-35.156250
121		-41.015625
122		-37.109375
123		-42.968750
124		-39.062500
125		-42.968750
126		-39.062500
127		-44.921875
128		-41.015625
129		-46.875000
130		-42.968750
131		-46.875000
132		-42.968750
133		-48.828125
134		-44.921875
135		-48.828125
136		-44.921875
137		-48.828125
138		-44.921875
139		-50.781250
140		-46.875000
141		-50.781250
142		-46.875000
143		-50.781250
144		-46.875000
145		-50.781250
146		-46.875000
147		-50.781250
148		-46.875000
149		-50.781250
150		-46.875000
151		-50.781250
152		-46.875000
153		-50.781250
154		-46.875000
155		-48.828125
156		-44.921875
157		-48.828125
158		-44.921875
159		-46.875000
160		-42.968750
161		-46.875000
162		-42.968750
163		-46.875000
164		-41.015625
165		-42.968750
166		-39.062500
167		-42.968750
168		-39.062500
169		-41.015625
170		-37.109375
171		-39.062500
172		-35.156250
173		-37.109375
174		-33.203125
175		-35.156250
176		-31.250000
177		-33.203125
178		-29.296875
179		-31.250000
180		-27.343750
181		-29.296875
182		-25.390625
183		-27.343750
184		-23.437500
185		-25.390625
186		-21.484375
187		-21.484375
188		-17.578125
189		-19.531250
190		-15.625000
191		-17.578125
192		-11.718750
193		-13.671875
194		-9.765625
195		-11.718750
196		-7.812500
197		-9.765625
198		-5.859375
199		-5.859375
200		-1.953125
201		-3.906250
202		0.000000
203		-1.953125
204		3.906250
205		1.953125
206		5.859375
207		3.906250
208		9.765625
209		5.859375
210		11.718750
211		9.765625
212		13.671875
213		11.718750
214		17.578125
215		13.671875
216		19.531250
217		17.578125
218		21.484375
219		21.484375
220		25.390625
221		23.437500
222		27.343750
223		25.390625
224		29.296875
225		27.343750
226		33.203125
227		31.250000
228		33.203125
229		33.203125
230		37.109375
231		35.156250
232		39.062500
233		37.109375
234		41.015625
235		39.062500
236		42.968750
237		41.015625
238		44.921875
239		42.968750
240		46.875000
241		44.921875
242		48.828125
243		46.875000
244		48.828125
245		48.828125
246		50.781250
247		48.828125
248		52.734375
249		50.781250
250		54.687500
251		52.734375
252		56.640625
253		52.734375
254		56.640625
255		54.687500
256		58.593750
257		54.687500
258		58.593750
259		56.640625
260		60.546875
261		56.640625
262		60.546875
263		56.640625
264		60.546875
265		56.640625
266		60.546875
267		58.593750
268		60.546875
269		58.593750
270		60.546875
271		58.593750
272		60.546875
273		58.593750
274		60.546875
275		56.640625
276		60.546875
277		58.593750
278		60.546875
279		56.640625
280		60.546875
281		56.640625
282		60.546875
283		56.640625
284		58.593750
285		56.640625
286		58.593750
287		54.687500
288		58.593750
289		52.734375
290		56.640625
291		52.734375
292		56.640625
293		50.781250
294		54.687500
295		50.781250
296		52.734375
297		48.828125
298		50.781250
299		46.875000
300		50.781250
301		44.921875
302		48.828125
303		42.968750
304		46.875000
305		41.015625
306		44.921875
307		39.062500
308		42.968750
309		37.109375
310		41.015625
311		35.156250
312		39.062500
313		31.250000
314		37.109375
315		29.296875
316		35.156250
317		27.343750
318		33.203125
319		23.437500
320		29.296875
321		23.437500
322		27.343750
323		19.531250
324		25.390625
325		17.578125
326		21.484375
327		15.625000
328		19.531250
329		13.671875
330		17.578125
331		9.765625
332		15.625000
333		7.812500
334		11.718750
335		3.906250
336		9.765625
337		1.953125
338		5.859375
339		-1.953125
340		3.906250
341		-3.906250
342		0.000000
343		-5.859375
344		-1.953125
345		-7.812500
346		-3.906250
347		-11.718750
348		-7.812500
349		-13.671875
350		-9.765625
351		-17.578125
352		-11.718750
353		-19.531250
354		-15.625000
355		-21.484375
356		-17.578125
357		-23.437500
358		-19.531250
359		-29.296875
360		-23.437500
361		-29.296875
362		-25.390625
363		-31.250000
364		-27.343750
365		-33.203125
366		-29.296875
367		-35.156250
368		-31.250000
369		-37.109375
370		-33.203125
371		-39.062500
372		-35.156250
373		-41.015625
374		-37.109375
375		-42.968750
376		-39.062500
377		-42.968750
378		-39.062500
379		-44.921875
380		-41.015625
381		-46.875000
382		-42.968750
383		-46.875000
384		-44.921875
385		-48.828125
386		-44.921875
387		-48.828125
388		-44.921875
389		-48.828125
390		-46.875000
391		-50.781250
392		-46.875000
393		-48.828125
394		-46.875000
395		-50.781250
396		-48.828125
397		-50.781250
398		-46.875000
399		-50.781250
400		-46.875000
401		-50.781250
402		-46.875000
403		-50.781250
404		-46.875000
405		-48.828125
406		-46.875000
407		-48.828125
408		-44.921875
409		-48.828125
410		-44.921875
411		-46.875000
412		-44.921875
413		-46.875000
414		-42.968750
415		-44.921875
416		-41.015625
417		-42.968750
418		-39.062500
419		-42.968750
420		-39.062500
421		-41.015625
422		-37.109375
423		-39.062500
424		-35.156250
425		-37.109375
426		-33.203125
427		-35.156250
428		-31.250000
429		-33.203125
430		-29.296875
431		-31.250000
432		-27.343750
433		-29.296875
434		-25.390625
435		-27.343750
436		-23.437500
437		-25.390625
438		-21.484375
439		-21.484375
440		-17.578125
441		-19.531250
442		-15.625000
443		-17.578125
444		-13.671875
445		-13.671875
446		-9.765625
447		-11.718750
448		-7.812500
449		-9.765625
450		-3.906250
451		-5.859375
452		-1.953125
453		-3.906250
454		0.000000
455		-1.953125
456		3.906250
457		1.953125
458		5.859375
459		3.906250
460		7.812500
461		5.859375
462		11.718750
463		9.765625
464		13.671875
465		11.718750
466		17.578125
467		15.625000
468		19.531250
469		17.578125
470		21.484375
471		19.531250
472		25.390625
473		23.437500
474		27.343750
475		25.390625
476		29.296875
477		27.343750
478		31.250000
479		29.296875
480		35.156250
481		33.203125
482		35.156250
483		33.203125
484		39.062500
485		37.109375
486		41.015625
487		39.062500
488		42.968750
489		41.015625
490		44.921875
491		42.968750
492		46.875000
493		44.921875
494		48.828125
495		46.875000
496		48.828125
497		48.828125
498		50.781250
499		48.828125
500		52.734375
501		50.781250
502		54.687500
503		52.734375
504		54.687500
505		52.734375
506		56.640625
507		54.687500
508		58.593750
509		54.687500
510		58.593750
511		54.687500
512		58.593750
513		56.640625
514		58.593750
515		56.640625
516		60.546875
517		58.593750
518		60.546875
519		58.593750
520		60.546875
521		58.593750
522		60.546875
523		58.593750
524		60.546875
525		58.593750
526		62.500000
527		58.593750
528		62.500000
529		58.593750
530		60.546875
531		56.640625
532		60.546875
533		56.640625
534		60.546875
535		56.640625
536		60.546875
537		54.687500
538		58.593750
539		54.687500
540		56.640625
541		52.734375
542		56.640625
543		50.781250
544		54.687500
545		50.781250
546		54.687500
547		48.828125
548		52.734375
549		46.875000
550		50.781250
551		46.875000
552		50.781250
553		44.921875
554		48.828125
555		42.968750
556		46.875000
557		41.015625
558		44.921875
559		39.062500
560		42.968750
561		37.109375
562		41.015625
563		35.156250
564		39.062500
565		33.203125
566		37.109375
567		31.250000
568		35.156250
569		27.343750
570		33.203125
571		25.390625
572		29.296875
573		23.437500
574		27.343750
575		19.531250
576		25.390625
577		17.578125
578		21.484375
579		15.625000
580		19.531250
581		13.671875
582		17.578125
583		9.765625
584		13.671875
585		5.859375
586		11.718750
587		3.906250
588		9.765625
589		1.953125
590		5.859375
591		0.000000
592		3.906250
593		-3.906250
594		0.000000
595		-5.859375
596		-1.953125
597		-9.765625
598		-5.859375
599		-13.671875
600		-7.812500
601		-13.671875
602		-9.765625
603		-17.578125
604		-11.718750
605		-19.531250
606		-15.625000
607		-21.484375
608		-17.578125
609		-23.437500
610		-19.531250
611		-27.343750
612		-21.484375
613		-29.296875
614		-25.390625
615		-31.250000
616		-27.343750
617		-33.203125
618		-29.296875
619		-35.156250
620		-31.250000
621		-37.109375
622		-33.203125
623		-39.062500
624		-35.156250
625		-41.015625
626		-37.109375
627		-42.968750
628		-39.062500
629		-44.921875
630		-39.062500
631		-44.921875
632		-41.015625
633		-46.875000
634		-42.968750
635		-46.875000
636		-42.968750
637		-48.828125
638		-44.921875
639		-48.828125
640		-46.875000
641		-48.828125
642		-46.875000
643		-50.781250
644		-46.875000
645		-50.781250
646		-46.875000
647		-50.781250
648		-48.828125
649		-50.781250
650		-48.828125
651		-50.781250
652		-46.875000
653		-50.781250
654		-46.875000
655		-50.781250
656		-46.875000
657		-50.781250
658		-46.875000
659		-48.828125
660		-44.921875
661		-48.828125
662		-44.921875
663		-46.875000
664		-44.921875
665		-46.875000
666		-42.968750
667		-44.921875
668		-41.015625
669		-42.968750
670		-41.015625
671		-42.968750
672		-39.062500
673		-41.015625
674		-37.109375
675		-39.062500
676		-35.156250
677		-39.062500
678		-33.203125
679		-35.156250
680		-31.250000
681		-33.203125
682		-29.296875
683		-31.250000
684		-27.343750
685		-29.296875
686		-25.390625
687		-27.343750
688		-21.484375
689		-25.390625
690		-21.484375
691		-21.484375
692		-17.578125
693		-19.531250
694		-15.625000
695		-17.578125
696		-11.718750
697		-13.671875
698		-9.765625
699		-11.718750
700		-7.812500
701		-9.765625
702		-3.906250
703		-5.859375
704		-1.953125
705		-5.859375
706		0.000000
707		-1.953125
708		3.906250
709		0.000000
710		5.859375
711		3.906250
712		7.812500
713		5.859375
714		11.718750
715		9.765625
716		13.671875
717		11.718750
718		17.578125
719		15.625000
720		19.531250
721		17.578125
722		21.484375
723		19.531250
724		25.390625
725		21.484375
726		27.343750
727		25.390625
728		29.296875
729		27.343750
730		31.250000
731		29.296875
732		33.203125
733		31.250000
734		37.109375
735		33.203125
736		39.062500
737		37.109375
738		41.015625
739		39.062500
740		42.968750
741		41.015625
742		44.921875
743		42.968750
744		46.875000
745		44.921875
746		48.828125
747		44.921875
748		48.828125
749		48.828125
750		50.781250
751		48.828125
752		52.734375
753		50.781250
754		54.687500
755		50.781250
756		54.687500
757		52.734375
758		56.640625
759		54.687500
760		56.640625
761		54.687500
762		58.593750
763		54.687500
764		58.593750
765		56.640625
766		58.593750
767		56.640625
768		60.546875
769		56.640625
770		60.546875
771		58.593750
772		60.546875
773		58.593750
774		60.546875
775		58.593750
776		60.546875
777		58.593750
778		62.500000
779		56.640625
780		60.546875
781		58.593750
782		60.546875
783		58.593750
784		60.546875
785		56.640625
786		60.546875
787		56.640625
788		60.546875
789		54.687500
790		58.593750
791		54.687500
792		58.593750
793		52.734375
794		56.640625
795		52.734375
796		56.640625
797		50.781250
798		54.687500
799		48.828125
800		52.734375
801		46.875000
802		50.781250
803		46.875000
804		50.781250
805		44.921875
806		48.828125
807		42.968750
808		46.875000
809		41.015625
810		44.921875
811		39.062500
812		42.968750
813		37.109375
814		41.015625
815		35.156250
816		39.062500
817		33.203125
818		37.109375
819		31.250000
820		35.156250
821		29.296875
822		31.250000
823		25.390625
824		29.296875
825		23.437500
826		27.343750
827		19.531250
828		25.390625
829		17.578125
830		21.484375
831		15.625000
832		21.484375
833		11.718750
834		17.578125
835		9.765625
836		13.671875
837		7.812500
838		11.718750
839		3.906250
840		9.765625
841		1.953125
842		5.859375
843		0.000000
844		3.906250
845		-3.906250
846		1.953125
847		-5.859375
848		-1.953125
849		-9.765625
850		-3.906250
851		-13.671875
852		-7.812500
853		-15.625000
854		-9.765625
855		-17.578125
856		-13.671875
857		-19.531250
858		-15.625000
859		-21.484375
860		-17.578125
861		-25.390625
862		-19.531250
863		-27.343750
864		-23.437500
865		-29.296875
866		-25.390625
867		-31.250000
868		-27.343750
869		-33.203125
870		-29.296875
871		-35.156250
872		-31.250000
873		-37.109375
874		-33.203125
875		-39.062500
876		-35.156250
877		-41.015625
878		-37.109375
879		-42.968750
880		-37.109375
881		-42.968750
882		-39.062500
883		-44.921875
884		-41.015625
885		-46.875000
886		-42.968750
887		-46.875000
888		-42.968750
889		-48.828125
890		-44.921875
891		-48.828125
892		-44.921875
893		-48.828125
894		-46.875000
895		-50.781250
896		-46.875000
897		-50.781250
898		-46.875000
899		-50.781250
900		-46.875000
901		-50.781250
902		-48.828125
903		-50.781250
904		-46.875000
905		-50.781250
906		-46.875000
907		-50.781250
908		-46.875000
909		-50.781250
910		-44.921875
911		-48.828125
912		-44.921875
913		-48.828125
914		-44.921875
915		-48.828125
916		-44.921875
917		-46.875000
918		-42.968750
919		-44.921875
920		-41.015625
921		-44.921875
922		-39.062500
923		-42.968750
924		-39.062500
925		-41.015625
926		-37.109375
927		-39.062500
928		-35.156250
929		-39.062500
930		-33.203125
931		-35.156250
932		-31.250000
933		-33.203125
934		-29.296875
935		-31.250000
936		-27.343750
937		-29.296875
938		-25.390625
939		-27.343750
940		-23.437500
941		-25.390625
942		-21.484375
943		-21.484375
944		-17.578125
945		-21.484375
946		-15.625000
947		-17.578125
948		-11.718750
949		-15.625000
950		-9.765625
951		-11.718750
952		-7.812500
953		-9.765625
954		-5.859375
955		-7.812500
956		-1.953125
957		-3.906250
958		0.000000
959		-1.953125
960		1.953125
961		0.000000
962		5.859375
963		3.906250
964		7.812500
965		5.859375
966		11.718750
967		9.765625
968		13.671875
969		11.718750
970		17.578125
971		13.671875
972		19.531250
973		17.578125
974		23.437500
975		19.531250
976		23.437500
977		21.484375
978		27.343750
979		25.390625
980		29.296875
981		27.343750
982		33.203125
983		29.296875
984		35.156250
985		33.203125
986		35.156250
987		33.203125
988		39.062500
989		37.109375
990		41.015625
991		37.109375
992		42.968750
993		41.015625
994		44.921875
995		42.968750
996		46.875000
997		42.968750
998		48.828125
999		44.921875
1000		48.828125
1001		48.828125
1002		50.781250
1003		48.828125
1004		52.734375
1005		50.781250
1006		54.687500
1007		50.781250
1008		54.687500
1009		52.734375
1010		56.640625
1011		54.687500
1012		56.640625
1013		54.687500
1014		58.593750
1015		56.640625
1016		60.546875
1017		56.640625
1018		58.593750
1019		56.640625
1020		60.546875
1021		56.640625
1022		60.546875
1023		56.640625
1024		62.500000
1025		58.593750
1026		60.546875
1027		58.593750
1028		60.546875
1029		58.593750
1030		60.546875
1031		56.640625
1032		60.546875
1033		58.593750
1034		60.546875
1035		56.640625
1036		60.546875
1037		56.640625
1038		60.546875
1039		56.640625
1040		58.593750
1041		54.687500
1042		58.593750
1043		54.687500
1044		58.593750
1045		52.734375
1046		56.640625
1047		52.734375
1048		56.640625
1049		50.781250
1050		54.687500
1051		48.828125
1052		52.734375
1053		46.875000
1054		50.781250
1055		44.921875
1056		50.781250
1057		44.921875
1058		48.828125
1059		42.968750
1060		46.875000
1061		41.015625
1062		44.921875
1063		39.062500
1064		42.968750
1065		35.156250
1066		41.015625
1067		35.156250
1068		39.062500
1069		33.203125
1070		37.109375
1071		31.250000
1072		35.156250
1073		27.343750
1074		31.250000
1075		25.390625
1076		29.296875
1077		21.484375
1078		27.343750
1079		21.484375
1080		25.390625
1081		17.578125
1082		23.437500
1083		15.625000
1084		19.531250
1085		13.671875
1086		17.578125
1087		9.765625
1088		13.671875
1089		7.812500
1090		11.718750
1091		3.906250
1092		9.765625
1093		1.953125
1094		5.859375
1095		-1.953125
1096		3.906250
1097		-3.906250
1098		0.000000
1099		-7.812500
1100		-1.953125
1101		-9.765625
1102		-5.859375
1103		-11.718750
1104		-7.812500
1105		-13.671875
1106		-9.765625
1107		-17.578125
1108		-13.671875
1109		-19.531250
1110		-15.625000
1111		-21.484375
1112		-17.578125
1113		-25.390625
1114		-19.531250
1115		-29.296875
1116		-23.437500
1117		-29.296875
1118		-25.390625
1119		-31.250000
1120		-27.343750
1121		-33.203125
1122		-29.296875
1123		-35.156250
1124		-31.250000
1125		-37.109375
1126		-33.203125
1127		-39.062500
1128		-35.156250
1129		-41.015625
1130		-37.109375
1131		-42.968750
1132		-39.062500
1133		-44.921875
1134		-39.062500
1135		-44.921875
1136		-41.015625
1137		-46.875000
1138		-42.968750
1139		-48.828125
1140		-42.968750
1141		-48.828125
1142		-44.921875
1143		-48.828125
1144		-44.921875
1145		-50.781250
1146		-46.875000
1147		-50.781250
1148		-46.875000
1149		-50.781250
1150		-46.875000
1151		-50.781250
1152		-48.828125
1153		-50.781250
1154		-48.828125
1155		-50.781250
1156		-46.875000
1157		-50.781250
1158		-46.875000
1159		-50.781250
1160		-46.875000
1161		-50.781250
1162		-46.875000
1163		-48.828125
1164		-46.875000
1165		-48.828125
1166		-44.921875
1167		-48.828125
1168		-42.968750
1169		-46.875000
1170		-42.968750
1171		-44.921875
1172		-41.015625
1173		-44.921875
1174		-41.015625
1175		-42.968750
1176		-39.062500
1177		-41.015625
1178		-37.109375
1179		-41.015625
1180		-35.156250
1181		-39.062500
1182		-33.203125
1183		-35.156250
1184		-31.250000
1185		-33.203125
1186		-29.296875
1187		-31.250000
1188		-27.343750
1189		-29.296875
1190		-25.390625
1191		-27.343750
1192		-23.437500
1193		-25.390625
1194		-21.484375
1195		-23.437500
1196		-17.578125
1197		-19.531250
1198		-15.625000
1199		-17.578125
1200		-13.671875
1201		-15.625000
1202		-9.765625
1203		-11.718750
1204		-7.812500
1205		-9.765625
1206		-5.859375
1207		-7.812500
1208		-1.953125
1209		-3.906250
1210		0.000000
1211		-1.953125
1212		1.953125
1213		0.000000
1214		5.859375
1215		3.906250
1216		7.812500
1217		5.859375
1218		11.718750
1219		9.765625
1220		13.671875
1221		11.718750
1222		17.578125
1223		13.671875
1224		19.531250
1225		17.578125
1226		21.484375
1227		19.531250
1228		23.437500
1229		23.437500
1230		25.390625
1231		23.437500
1232		29.296875
1233		27.343750
1234		31.250000
1235		29.296875
1236		33.203125
1237		31.250000
1238		35.156250
1239		33.203125
1240		39.062500
1241		37.109375
1242		41.015625
1243		37.109375
1244		42.968750
1245		41.015625
1246		44.921875
1247		42.968750
1248		46.875000
1249		42.968750
1250		48.828125
1251		44.921875
1252		48.828125
1253		46.875000
1254		50.781250
1255		48.828125
1256		52.734375
1257		50.781250
1258		52.734375
1259		50.781250
1260		54.687500
1261		52.734375
1262		56.640625
1263		52.734375
1264		56.640625
1265		54.687500
1266		58.593750
1267		54.687500
1268		58.593750
1269		56.640625
1270		58.593750
1271		56.640625
1272		60.546875
1273		56.640625
1274		60.546875
1275		58.593750
1276		60.546875
1277		58.593750
1278		60.546875
1279		58.593750
1280		60.546875
1281		58.593750
1282		60.546875
1283		56.640625
1284		60.546875
1285		56.640625
1286		62.500000
1287		56.640625
1288		60.546875
1289		54.687500
1290		60.546875
1291		54.687500
1292		58.593750
1293		54.687500
1294		58.593750
1295		54.687500
1296		56.640625
1297		52.734375
1298		56.640625
1299		52.734375
1300		54.687500
1301		50.781250
1302		54.687500
1303		48.828125
1304		52.734375
1305		46.875000
1306		50.781250
1307		46.875000
1308		50.781250
1309		44.921875
1310		48.828125
1311		42.968750
1312		48.828125
1313		41.015625
1314		44.921875
1315		39.062500
1316		42.968750
1317		35.156250
1318		41.015625
1319		35.156250
1320		39.062500
1321		33.203125
1322		37.109375
1323		29.296875
1324		35.156250
1325		27.343750
1326		31.250000
1327		25.390625
1328		29.296875
1329		23.437500
1330		27.343750
1331		19.531250
1332		25.390625
1333		17.578125
1334		21.484375
1335		15.625000
1336		19.531250
1337		11.718750
1338		17.578125
1339		9.765625
1340		13.671875
1341		7.812500
1342		11.718750
1343		3.906250
1344		9.765625
1345		1.953125
1346		5.859375
1347		-1.953125
1348		3.906250
1349		-3.906250
1350		0.000000
1351		-7.812500
1352		-1.953125
1353		-9.765625
1354		-5.859375
1355		-11.718750
1356		-7.812500
1357		-13.671875
1358		-9.765625
1359		-17.578125
1360		-11.718750
1361		-19.531250
1362		-15.625000
1363		-23.437500
1364		-17.578125
1365		-25.390625
1366		-19.531250
1367		-27.343750
1368		-21.484375
1369		-29.296875
1370		-25.390625
1371		-31.250000
1372		-27.343750
1373		-33.203125
1374		-29.296875
1375		-35.156250
1376		-31.250000
1377		-37.109375
1378		-33.203125
1379		-39.062500
1380		-35.156250
1381		-42.968750
1382		-37.109375
1383		-42.968750
1384		-39.062500
1385		-44.921875
1386		-41.015625
1387		-44.921875
1388		-42.968750
1389		-46.875000
1390		-42.968750
1391		-48.828125
1392		-44.921875
1393		-48.828125
1394		-44.921875
1395		-50.781250
1396		-44.921875
1397		-50.781250
1398		-44.921875
1399		-50.781250
1400		-46.875000
1401		-50.781250
1402		-46.875000
1403		-50.781250
1404		-48.828125
1405		-50.781250
1406		-48.828125
1407		-52.734375
1408		-46.875000
1409		-52.734375
1410		-44.921875
1411		-52.734375
1412		-44.921875
1413		-50.781250
1414		-44.921875
1415		-50.781250
1416		-44.921875
1417		-50.781250
1418		-44.921875
1419		-48.828125
1420		-44.921875
1421		-46.875000
1422		-42.968750
1423		-46.875000
1424		-41.015625
1425		-46.875000
1426		-39.062500
1427		-44.921875
1428		-37.109375
1429		-42.968750
1430		-35.156250
1431		-41.015625
1432		-35.156250
1433		-39.062500
1434		-31.250000
1435		-37.109375
1436		-31.250000
1437		-33.203125
1438		-29.296875
1439		-31.250000
1440		-29.296875
1441		-31.250000
1442		-23.437500
1443		-29.296875
1444		-21.484375
1445		-27.343750
1446		-19.531250
1447		-25.390625
1448		-17.578125
1449		-21.484375
1450		-13.671875
1451		-19.531250
1452		-11.718750
1453		-15.625000
1454		-11.718750
1455		-13.671875
1456		-9.765625
1457		-11.718750
1458		-3.906250
1459		-9.765625
1460		-1.953125
1461		-7.812500
1462		1.953125
1463		-3.906250
1464		3.906250
1465		0.000000
1466		7.812500
1467		1.953125
1468		9.765625
1469		5.859375
1470		11.718750
1471		9.765625
1472		13.671875
1473		11.718750
1474		17.578125
1475		13.671875
1476		19.531250
1477		15.625000
1478		23.437500
1479		17.578125
1480		25.390625
1481		21.484375
1482		27.343750
1483		23.437500
1484		31.250000
1485		25.390625
1486		33.203125
1487		29.296875
1488		33.203125
1489		31.250000
1490		35.156250
1491		33.203125
1492		39.062500
1493		33.203125
1494		41.015625
1495		35.156250
1496		44.921875
1497		37.109375
1498		44.921875
1499		41.015625
1500		46.875000
1501		42.968750
1502		48.828125
1503		44.921875
1504		50.781250
1505		46.875000
1506		50.781250
1507		46.875000
1508		54.687500
1509		48.828125
1510		56.640625
1511		48.828125
1512		56.640625
1513		50.781250
1514		58.593750
1515		50.781250
1516		58.593750
1517		52.734375
1518		58.593750
1519		52.734375
1520		60.546875
1521		56.640625
1522		58.593750
1523		56.640625
1524		58.593750
1525		54.687500
1526		62.500000
1527		56.640625
1528		62.500000
1529		54.687500
1530		62.500000
1531		54.687500
1532		62.500000
1533		54.687500
1534		62.500000
1535		54.687500
1536		62.500000
1537		56.640625
1538		60.546875
1539		56.640625
1540		58.593750
1541		54.687500
1542		60.546875
1543		54.687500
1544		60.546875
1545		52.734375
1546		60.546875
1547		52.734375
1548		58.593750
1549		50.781250
1550		58.593750
1551		50.781250
1552		56.640625
1553		48.828125
1554		56.640625
1555		48.828125
1556		52.734375
1557		46.875000
1558		50.781250
1559		44.921875
1560		50.781250
1561		42.968750
1562		50.781250
1563		39.062500
1564		48.828125
1565		39.062500
1566		46.875000
1567		37.109375
1568		44.921875
1569		35.156250
1570		41.015625
1571		35.156250
1572		39.062500
1573		33.203125
1574		37.109375
1575		27.343750
1576		35.156250
1577		25.390625
1578		33.203125
1579		23.437500
1580		31.250000
1581		21.484375
1582		29.296875
1583		17.578125
1584		27.343750
1585		13.671875
1586		23.437500
1587		15.625000
1588		21.484375
1589		13.671875
1590		15.625000
1591		7.812500
1592		13.671875
1593		3.906250
1594		13.671875
1595		1.953125
1596		11.718750
1597		-1.953125
1598		7.812500
1599		-3.906250
1600		5.859375
1601		-7.812500
1602		1.953125
1603		-7.812500
1604		0.000000
1605		-9.765625
1606		-5.859375
1607		-11.718750
1608		-7.812500
1609		-15.625000
1610		-7.812500
1611		-19.531250
1612		-9.765625
1613		-21.484375
1614		-13.671875
1615		-23.437500
1616		-15.625000
1617		-27.343750
1618		-19.531250
1619		-29.296875
1620		-21.484375
1621		-29.296875
1622		-25.390625
1623		-31.250000
1624		-27.343750
1625		-35.156250
1626		-29.296875
1627		-39.062500
1628		-29.296875
1629		-39.062500
1630		-33.203125
1631		-41.015625
1632		-33.203125
1633		-42.968750
1634		-35.156250
1635		-44.921875
1636		-37.109375
1637		-44.921875
1638		-39.062500
1639		-44.921875
1640		-41.015625
1641		-46.875000
1642		-42.968750
1643		-50.781250
1644		-42.968750
1645		-50.781250
1646		-42.968750
1647		-50.781250
1648		-44.921875
1649		-52.734375
1650		-44.921875
1651		-52.734375
1652		-44.921875
1653		-52.734375
1654		-44.921875
1655		-50.781250
1656		-48.828125
1657		-50.781250
1658		-48.828125
1659		-52.734375
1660		-46.875000
1661		-52.734375
1662		-46.875000
1663		-52.734375
1664		-46.875000
1665		-50.781250
1666		-44.921875
1667		-50.781250
1668		-44.921875
1669		-50.781250
1670		-44.921875
1671		-48.828125
1672		-44.921875
1673		-46.875000
1674		-44.921875
1675		-46.875000
1676		-39.062500
1677		-46.875000
1678		-39.062500
1679		-46.875000
1680		-37.109375
1681		-44.921875
1682		-37.109375
1683		-42.968750
1684		-35.156250
1685		-41.015625
1686		-33.203125
1687		-39.062500
1688		-31.250000
1689		-35.156250
1690		-31.250000
1691		-33.203125
1692		-29.296875
1693		-33.203125
1694		-25.390625
1695		-29.296875
1696		-21.484375
1697		-27.343750
1698		-19.531250
1699		-25.390625
1700		-17.578125
1701		-23.437500
1702		-13.671875
1703		-21.484375
1704		-11.718750
1705		-15.625000
1706		-11.718750
1707		-13.671875
1708		-9.765625
1709		-11.718750
1710		-3.906250
1711		-9.765625
1712		-1.953125
1713		-7.812500
1714		0.000000
1715		-5.859375
1716		3.906250
1717		-1.953125
1718		7.812500
1719		0.000000
1720		9.765625
1721		3.906250
1722		11.718750
1723		7.812500
1724		13.671875
1725		11.718750
1726		15.625000
1727		11.718750
1728		19.531250
1729		13.671875
1730		23.437500
1731		17.578125
1732		25.390625
1733		19.531250
1734		27.343750
1735		21.484375
1736		31.250000
1737		23.437500
1738		33.203125
1739		29.296875
1740		33.203125
1741		31.250000
1742		35.156250
1743		31.250000
1744		39.062500
1745		33.203125
1746		41.015625
1747		35.156250
1748		42.968750
1749		37.109375
1750		44.921875
1751		39.062500
1752		46.875000
1753		41.015625
1754		48.828125
1755		42.968750
1756		48.828125
1757		46.875000
1758		50.781250
1759		46.875000
1760		54.687500
1761		46.875000
1762		54.687500
1763		48.828125
1764		56.640625
1765		50.781250
1766		56.640625
1767		50.781250
1768		58.593750
1769		52.734375
1770		60.546875
1771		52.734375
1772		60.546875
1773		56.640625
1774		58.593750
1775		56.640625
1776		58.593750
1777		54.687500
1778		62.500000
1779		54.687500
1780		62.500000
1781		54.687500
1782		62.500000
1783		54.687500
1784		62.500000
1785		54.687500
1786		62.500000
1787		54.687500
1788		62.500000
1789		54.687500
1790		60.546875
1791		56.640625
1792		58.593750
1793		54.687500
1794		60.546875
1795		52.734375
1796		60.546875
1797		52.734375
1798		60.546875
1799		52.734375
1800		58.593750
1801		50.781250
1802		58.593750
1803		48.828125
1804		56.640625
1805		48.828125
1806		56.640625
1807		48.828125
1808		52.734375
1809		46.875000
1810		50.781250
1811		42.968750
1812		50.781250
1813		42.968750
1814		48.828125
1815		39.062500
1816		50.781250
1817		37.109375
1818		46.875000
1819		35.156250
1820		44.921875
1821		35.156250
1822		42.968750
1823		35.156250
1824		39.062500
1825		33.203125
1826		35.156250
1827		27.343750
1828		35.156250
1829		25.390625
1830		33.203125
1831		23.437500
1832		31.250000
1833		19.531250
1834		29.296875
1835		17.578125
1836		25.390625
1837		15.625000
1838		23.437500
1839		13.671875
1840		21.484375
1841		11.718750
1842		15.625000
1843		7.812500
1844		13.671875
1845		3.906250
1846		13.671875
1847		1.953125
1848		9.765625
1849		0.000000
1850		7.812500
1851		-3.906250
1852		5.859375
1853		-5.859375
1854		3.906250
1855		-7.812500
1856		0.000000
1857		-9.765625
1858		-5.859375
1859		-11.718750
1860		-7.812500
1861		-17.578125
1862		-9.765625
1863		-19.531250
1864		-11.718750
1865		-21.484375
1866		-13.671875
1867		-25.390625
1868		-17.578125
1869		-27.343750
1870		-19.531250
1871		-29.296875
1872		-19.531250
1873		-29.296875
1874		-23.437500
1875		-33.203125
1876		-27.343750
1877		-37.109375
1878		-29.296875
1879		-39.062500
1880		-31.250000
1881		-41.015625
1882		-31.250000
1883		-41.015625
1884		-33.203125
1885		-42.968750
1886		-35.156250
1887		-44.921875
1888		-37.109375
1889		-44.921875
1890		-39.062500
1891		-44.921875
1892		-42.968750
1893		-46.875000
1894		-42.968750
1895		-50.781250
1896		-42.968750
1897		-52.734375
1898		-42.968750
1899		-50.781250
1900		-44.921875
1901		-52.734375
1902		-44.921875
1903		-52.734375
1904		-46.875000
1905		-52.734375
1906		-46.875000
1907		-52.734375
1908		-46.875000
1909		-52.734375
1910		-48.828125
1911		-54.687500
1912		-46.875000
1913		-52.734375
1914		-46.875000
1915		-52.734375
1916		-46.875000
1917		-52.734375
1918		-44.921875
1919		-52.734375
1920		-44.921875
1921		-50.781250
1922		-42.968750
1923		-50.781250
1924		-42.968750
1925		-46.875000
1926		-44.921875
1927		-46.875000
1928		-41.015625
1929		-46.875000
1930		-39.062500
1931		-44.921875
1932		-37.109375
1933		-42.968750
1934		-37.109375
1935		-42.968750
1936		-35.156250
1937		-41.015625
1938		-33.203125
1939		-39.062500
1940		-31.250000
1941		-35.156250
1942		-31.250000
1943		-33.203125
1944		-29.296875
1945		-31.250000
1946		-23.437500
1947		-31.250000
1948		-21.484375
1949		-27.343750
1950		-19.531250
1951		-25.390625
1952		-17.578125
1953		-23.437500
1954		-15.625000
1955		-21.484375
1956		-11.718750
1957		-17.578125
1958		-11.718750
1959		-13.671875
1960		-9.765625
1961		-11.718750
1962		-3.906250
1963		-9.765625
1964		-1.953125
1965		-7.812500
1966		1.953125
1967		-3.906250
1968		3.906250
1969		-1.953125
1970		5.859375
1971		0.000000
1972		9.765625
1973		3.906250
1974		11.718750
1975		7.812500
1976		13.671875
1977		11.718750
1978		15.625000
1979		11.718750
1980		19.531250
1981		13.671875
1982		23.437500
1983		17.578125
1984		25.390625
1985		19.531250
1986		27.343750
1987		21.484375
1988		31.250000
1989		25.390625
1990		33.203125
1991		29.296875
1992		33.203125
1993		31.250000
1994		35.156250
1995		31.250000
1996		39.062500
1997		33.203125
1998		41.015625
1999		35.156250
2000		42.968750
2001		37.109375
2002		44.921875
2003		39.062500
2004		46.875000
2005		41.015625
2006		48.828125
2007		42.968750
2008		50.781250
2009		46.875000
2010		50.781250
2011		46.875000
2012		52.734375
2013		46.875000
2014		54.687500
2015		48.828125
2016		56.640625
2017		50.781250
2018		58.593750
2019		50.781250
2020		58.593750
2021		50.781250
2022		58.593750
2023		52.734375
2024		60.546875
2025		56.640625
2026		58.593750
2027		56.640625
2028		58.593750
2029		54.687500
2030		60.546875
2031		54.687500
2032		62.500000
2033		54.687500
2034		62.500000
2035		56.640625
2036		62.500000
2037		54.687500
2038		62.500000
2039		54.687500
2040		62.500000
2041		54.687500
2042		62.500000
2043		56.640625
2044		58.593750
2045		54.687500
2046		60.546875
2047		52.734375
2048		60.546875
2049		52.734375
2050		60.546875
2051		52.734375
2052		58.593750
2053		50.781250
2054		58.593750
2055		46.875000
2056		56.640625
2057		48.828125
2058		56.640625
2059		48.828125
2060		52.734375
2061		48.828125
2062		50.781250
2063		44.921875
2064		50.781250
2065		42.968750
2066		48.828125
2067		41.015625
2068		48.828125
2069		39.062500
2070		46.875000
2071		37.109375
2072		44.921875
2073		35.156250
2074		42.968750
2075		35.156250
2076		39.062500
2077		33.203125
2078		37.109375
2079		27.343750
2080		35.156250
2081		25.390625
2082		35.156250
2083		23.437500
2084		31.250000
2085		21.484375
2086		29.296875
2087		17.578125
2088		27.343750
2089		15.625000
2090		23.437500
2091		13.671875
2092		21.484375
2093		11.718750
2094		17.578125
2095		7.812500
2096		13.671875
2097		5.859375
2098		13.671875
2099		1.953125
2100		9.765625
2101		0.000000
2102		7.812500
2103		-3.906250
2104		3.906250
2105		-5.859375
2106		1.953125
2107		-7.812500
2108		0.000000
2109		-9.765625
2110		-3.906250
2111		-11.718750
2112		-7.812500
2113		-15.625000
2114		-9.765625
2115		-19.531250
2116		-9.765625
2117		-21.484375
2118		-13.671875
2119		-23.437500
2120		-15.625000
2121		-27.343750
2122		-17.578125
2123		-29.296875
2124		-19.531250
2125		-29.296875
2126		-23.437500
2127		-31.250000
2128		-27.343750
2129		-35.156250
2130		-29.296875
2131		-37.109375
2132		-29.296875
2133		-39.062500
2134		-31.250000
2135		-42.968750
2136		-33.203125
2137		-42.968750
2138		-35.156250
2139		-44.921875
2140		-37.109375
2141		-46.875000
2142		-39.062500
2143		-44.921875
2144		-42.968750
2145		-46.875000
2146		-42.968750
2147		-48.828125
2148		-42.968750
2149		-50.781250
2150		-42.968750
2151		-50.781250
2152		-44.921875
2153		-52.734375
2154		-44.921875
2155		-52.734375
2156		-44.921875
2157		-54.687500
2158		-44.921875
2159		-52.734375
2160		-46.875000
2161		-50.781250
2162		-48.828125
2163		-52.734375
2164		-46.875000
2165		-52.734375
2166		-46.875000
2167		-52.734375
2168		-46.875000
2169		-52.734375
2170		-44.921875
2171		-50.781250
2172		-44.921875
2173		-50.781250
2174		-42.968750
2175		-50.781250
2176		-42.968750
2177		-46.875000
2178		-44.921875
2179		-46.875000
2180		-41.015625
2181		-46.875000
2182		-39.062500
2183		-44.921875
2184		-39.062500
2185		-42.968750
2186		-35.156250
2187		-42.968750
2188		-33.203125
2189		-41.015625
2190		-33.203125
2191		-39.062500
2192		-31.250000
2193		-35.156250
2194		-31.250000
2195		-33.203125
2196		-29.296875
2197		-31.250000
2198		-25.390625
2199		-31.250000
2200		-21.484375
2201		-27.343750
2202		-19.531250
2203		-25.390625
2204		-17.578125
2205		-23.437500
2206		-15.625000
2207		-21.484375
2208		-11.718750
2209		-17.578125
2210		-11.718750
2211		-13.671875
2212		-9.765625
2213		-11.718750
2214		-3.906250
2215		-9.765625
2216		-1.953125
2217		-7.812500
2218		0.000000
2219		-3.906250
2220		3.906250
2221		-1.953125
2222		5.859375
2223		0.000000
2224		9.765625
2225		3.906250
2226		11.718750
2227		7.812500
2228		13.671875
2229		11.718750
2230		15.625000
2231		11.718750
2232		19.531250
2233		13.671875
2234		23.437500
2235		17.578125
2236		25.390625
2237		19.531250
2238		27.343750
2239		21.484375
2240		31.250000
2241		25.390625
2242		31.250000
2243		27.343750
2244		33.203125
2245		31.250000
2246		35.156250
2247		31.250000
2248		39.062500
2249		33.203125
2250		41.015625
2251		35.156250
2252		42.968750
2253		37.109375
2254		44.921875
2255		39.062500
2256		46.875000
2257		41.015625
2258		48.828125
2259		42.968750
2260		50.781250
2261		46.875000
2262		50.781250
2263		48.828125
2264		50.781250
2265		46.875000
2266		54.687500
2267		48.828125
2268		56.640625
2269		48.828125
2270		56.640625
2271		50.781250
2272		58.593750
2273		52.734375
2274		58.593750
2275		52.734375
2276		60.546875
2277		56.640625
2278		58.593750
2279		56.640625
2280		58.593750
2281		54.687500
2282		62.500000
2283		54.687500
2284		62.500000
2285		54.687500
2286		62.500000
2287		54.687500
2288		62.500000
2289		54.687500
2290		62.500000
2291		54.687500
2292		62.500000
2293		54.687500
2294		62.500000
2295		56.640625
2296		58.593750
2297		54.687500
2298		60.546875
2299		52.734375
2300		60.546875
2301		52.734375
2302		60.546875
2303		50.781250
2304		58.593750
2305		50.781250
2306		58.593750
2307		48.828125
2308		56.640625
2309		48.828125
2310		56.640625
2311		48.828125
2312		52.734375
2313		46.875000
2314		50.781250
2315		42.968750
2316		50.781250
2317		41.015625
2318		48.828125
2319		41.015625
2320		48.828125
2321		37.109375
2322		46.875000
2323		35.156250
2324		44.921875
2325		33.203125
2326		42.968750
2327		33.203125
2328		41.015625
2329		33.203125
2330		37.109375
2331		27.343750
2332		35.156250
2333		25.390625
2334		33.203125
2335		23.437500
2336		31.250000
2337		21.484375
2338		29.296875
2339		17.578125
2340		27.343750
2341		15.625000
2342		23.437500
2343		13.671875
2344		21.484375
2345		11.718750
2346		17.578125
2347		9.765625
2348		13.671875
2349		5.859375
2350		13.671875
2351		1.953125
2352		11.718750
2353		0.000000
2354		7.812500
2355		-1.953125
2356		5.859375
2357		-5.859375
2358		1.953125
2359		-7.812500
2360		0.000000
2361		-9.765625
2362		-3.906250
2363		-11.718750
2364		-7.812500
2365		-17.578125
2366		-9.765625
2367		-19.531250
2368		-11.718750
2369		-21.484375
2370		-13.671875
2371		-25.390625
2372		-17.578125
2373		-27.343750
2374		-19.531250
2375		-29.296875
2376		-21.484375
2377		-31.250000
2378		-23.437500
2379		-31.250000
2380		-27.343750
2381		-35.156250
2382		-29.296875
2383		-39.062500
2384		-29.296875
2385		-39.062500
2386		-31.250000
2387		-41.015625
2388		-33.203125
2389		-42.968750
2390		-35.156250
2391		-44.921875
2392		-37.109375
2393		-46.875000
2394		-39.062500
2395		-44.921875
2396		-42.968750
2397		-46.875000
2398		-42.968750
2399		-50.781250
2400		-42.968750
2401		-50.781250
2402		-42.968750
2403		-50.781250
2404		-44.921875
2405		-52.734375
2406		-44.921875
2407		-52.734375
2408		-46.875000
2409		-52.734375
2410		-46.875000
2411		-52.734375
2412		-46.875000
2413		-52.734375
2414		-48.828125
2415		-52.734375
2416		-46.875000
2417		-52.734375
2418		-46.875000
2419		-52.734375
2420		-46.875000
2421		-52.734375
2422		-44.921875
2423		-52.734375
2424		-44.921875
2425		-50.781250
2426		-44.921875
2427		-50.781250
2428		-42.968750
2429		-46.875000
2430		-44.921875
2431		-46.875000
2432		-42.968750
2433		-46.875000
2434		-39.062500
2435		-44.921875
2436		-39.062500
2437		-44.921875
2438		-37.109375
2439		-42.968750
2440		-35.156250
2441		-41.015625
2442		-33.203125
2443		-39.062500
2444		-31.250000
2445		-37.109375
2446		-31.250000
2447		-33.203125
2448		-29.296875
2449		-31.250000
2450		-25.390625
2451		-31.250000
2452		-23.437500
2453		-29.296875
2454		-19.531250
2455		-25.390625
2456		-17.578125
2457		-23.437500
2458		-13.671875
2459		-21.484375
2460		-11.718750
2461		-19.531250
2462		-11.718750
2463		-13.671875
2464		-9.765625
2465		-11.718750
2466		-3.906250
2467		-9.765625
2468		-1.953125
2469		-7.812500
2470		0.000000
2471		-5.859375
2472		3.906250
2473		-1.953125
2474		5.859375
2475		0.000000
2476		9.765625
2477		1.953125
2478		11.718750
2479		7.812500
2480		11.718750
2481		9.765625
2482		15.625000
2483		11.718750
2484		19.531250
2485		13.671875
2486		21.484375
2487		15.625000
2488		25.390625
2489		19.531250
2490		27.343750
2491		21.484375
2492		29.296875
2493		23.437500
2494		33.203125
2495		25.390625
2496		33.203125
2497		31.250000
2498		35.156250
2499		33.203125
2500		39.062500
2501		33.203125
2502		41.015625
2503		35.156250
2504		42.968750
2505		37.109375
2506		44.921875
2507		39.062500
2508		46.875000
2509		41.015625
2510		48.828125
2511		42.968750
2512		50.781250
2513		46.875000
2514		50.781250
2515		48.828125
2516		50.781250
2517		46.875000
2518		54.687500
2519		48.828125
2520		56.640625
2521		48.828125
2522		58.593750
2523		50.781250
2524		58.593750
2525		52.734375
2526		58.593750
2527		50.781250
2528		60.546875
2529		52.734375
2530		58.593750
2531		56.640625
2532		58.593750
2533		54.687500
2534		62.500000
2535		54.687500
2536		62.500000
2537		54.687500
2538		62.500000
2539		54.687500
2540		62.500000
2541		54.687500
2542		62.500000
2543		54.687500
2544		62.500000
2545		54.687500
2546		62.500000
2547		56.640625
2548		58.593750
2549		54.687500
2550		58.593750
2551		52.734375
2552		60.546875
2553		52.734375
2554		60.546875
2555		50.781250
2556		58.593750
2557		50.781250
2558		56.640625
2559		48.828125
2560		56.640625
2561		48.828125
2562		54.687500
2563		48.828125
2564		52.734375
2565		46.875000
2566		50.781250
2567		42.968750
2568		50.781250
2569		42.968750
2570		50.781250
2571		41.015625
2572		48.828125
2573		39.062500
2574		44.921875
2575		35.156250
2576		44.921875
2577		35.156250
2578		42.968750
2579		35.156250
2580		39.062500
2581		33.203125
2582		37.109375
2583		27.343750
2584		35.156250
2585		25.390625
2586		33.203125
2587		23.437500
2588		31.250000
2589		19.531250
2590		29.296875
2591		17.578125
2592		27.343750
2593		15.625000
2594		23.437500
2595		13.671875
2596		21.484375
2597		11.718750
2598		15.625000
2599		9.765625
2600		13.671875
2601		5.859375
2602		11.718750
2603		1.953125
2604		9.765625
2605		0.000000
2606		7.812500
2607		-3.906250
2608		5.859375
2609		-5.859375
2610		1.953125
2611		-9.765625
2612		0.000000
2613		-9.765625
2614		-1.953125
2615		-11.718750
2616		-7.812500
2617		-17.578125
2618		-9.765625
2619		-19.531250
2620		-11.718750
2621		-21.484375
2622		-13.671875
2623		-25.390625
2624		-15.625000
2625		-27.343750
2626		-17.578125
2627		-29.296875
2628		-21.484375
2629		-29.296875
2630		-23.437500
2631		-31.250000
2632		-27.343750
2633		-35.156250
2634		-29.296875
2635		-39.062500
2636		-29.296875
2637		-39.062500
2638		-31.250000
2639		-41.015625
2640		-33.203125
2641		-42.968750
2642		-35.156250
2643		-44.921875
2644		-37.109375
2645		-44.921875
2646		-39.062500
2647		-44.921875
2648		-42.968750
2649		-46.875000
2650		-42.968750
2651		-50.781250
2652		-42.968750
2653		-50.781250
2654		-42.968750
2655		-52.734375
2656		-42.968750
2657		-52.734375
2658		-44.921875
2659		-52.734375
2660		-44.921875
2661		-52.734375
2662		-46.875000
2663		-52.734375
2664		-46.875000
2665		-50.781250
2666		-48.828125
2667		-52.734375
2668		-46.875000
2669		-52.734375
2670		-46.875000
2671		-52.734375
2672		-46.875000
2673		-52.734375
2674		-44.921875
2675		-50.781250
2676		-44.921875
2677		-52.734375
2678		-44.921875
2679		-50.781250
2680		-42.968750
2681		-46.875000
2682		-44.921875
2683		-46.875000
2684		-42.968750
2685		-46.875000
2686		-39.062500
2687		-44.921875
2688		-39.062500
2689		-44.921875
2690		-37.109375
2691		-42.968750
2692		-35.156250
2693		-41.015625
2694		-33.203125
2695		-39.062500
2696		-31.250000
2697		-37.109375
2698		-31.250000
2699		-33.203125
2700		-29.296875
2701		-31.250000
2702		-23.437500
2703		-31.250000
2704		-21.484375
2705		-27.343750
2706		-19.531250
2707		-25.390625
2708		-17.578125
2709		-23.437500
2710		-15.625000
2711		-21.484375
2712		-11.718750
2713		-17.578125
2714		-11.718750
2715		-13.671875
2716		-9.765625
2717		-11.718750
2718		-5.859375
2719		-9.765625
2720		-1.953125
2721		-7.812500
2722		0.000000
2723		-5.859375
2724		3.906250
2725		-1.953125
2726		5.859375
2727		0.000000
2728		9.765625
2729		1.953125
2730		11.718750
2731		7.812500
2732		11.718750
2733		9.765625
2734		15.625000
2735		11.718750
2736		19.531250
2737		13.671875
2738		21.484375
2739		17.578125
2740		25.390625
2741		19.531250
2742		27.343750
2743		21.484375
2744		29.296875
2745		23.437500
2746		31.250000
2747		27.343750
2748		33.203125
2749		31.250000
2750		35.156250
2751		33.203125
2752		39.062500
2753		33.203125
2754		41.015625
2755		35.156250
2756		42.968750
2757		37.109375
2758		44.921875
2759		39.062500
2760		46.875000
2761		41.015625
2762		48.828125
2763		42.968750
2764		50.781250
2765		46.875000
2766		48.828125
2767		48.828125
2768		50.781250
2769		46.875000
2770		54.687500
2771		48.828125
2772		56.640625
2773		50.781250
2774		56.640625
2775		50.781250
2776		58.593750
2777		50.781250
2778		58.593750
2779		52.734375
2780		58.593750
2781		54.687500
2782		60.546875
2783		56.640625
2784		58.593750
2785		54.687500
2786		60.546875
2787		54.687500
2788		62.500000
2789		54.687500
2790		62.500000
2791		54.687500
2792		62.500000
2793		54.687500
2794		62.500000
2795		54.687500
2796		62.500000
2797		54.687500
2798		62.500000
2799		56.640625
2800		58.593750
2801		54.687500
2802		58.593750
2803		52.734375
2804		60.546875
2805		52.734375
2806		60.546875
2807		50.781250
2808		58.593750
2809		50.781250
2810		58.593750
2811		48.828125
2812		56.640625
2813		48.828125
2814		54.687500
2815		48.828125
2816		52.734375
2817		46.875000
2818		50.781250
2819		42.968750
2820		50.781250
2821		42.968750
2822		48.828125
2823		39.062500
2824		48.828125
2825		39.062500
2826		44.921875
2827		37.109375
2828		44.921875
2829		35.156250
2830		42.968750
2831		33.203125
2832		41.015625
2833		33.203125
2834		35.156250
2835		27.343750
2836		35.156250
2837		25.390625
2838		33.203125
2839		23.437500
2840		31.250000
2841		21.484375
2842		29.296875
2843		17.578125
2844		25.390625
2845		15.625000
2846		23.437500
2847		13.671875
2848		21.484375
2849		11.718750
2850		17.578125
2851		9.765625
2852		13.671875
2853		3.906250
2854		13.671875
2855		1.953125
2856		9.765625
2857		0.000000
2858		7.812500
2859		-3.906250
2860		5.859375
2861		-5.859375
2862		1.953125
2863		-7.812500
2864		0.000000
2865		-9.765625
2866		-3.906250
2867		-11.718750
2868		-7.812500
2869		-17.578125
2870		-9.765625
2871		-19.531250
2872		-11.718750
2873		-23.437500
2874		-13.671875
2875		-25.390625
2876		-17.578125
2877		-27.343750
2878		-19.531250
2879		-29.296875
2880		-21.484375
2881		-31.250000
2882		-21.484375
2883		-31.250000
2884		-27.343750
2885		-33.203125
2886		-29.296875
2887		-39.062500
2888		-29.296875
2889		-41.015625
2890		-31.250000
2891		-42.968750
2892		-33.203125
2893		-42.968750
2894		-35.156250
2895		-44.921875
2896		-37.109375
2897		-46.875000
2898		-39.062500
2899		-44.921875
2900		-42.968750
2901		-46.875000
2902		-42.968750
2903		-50.781250
2904		-42.968750
2905		-50.781250
2906		-42.968750
2907		-52.734375
2908		-44.921875
2909		-52.734375
2910		-44.921875
2911		-52.734375
2912		-44.921875
2913		-52.734375
2914		-46.875000
2915		-52.734375
2916		-46.875000
2917		-52.734375
2918		-48.828125
2919		-52.734375
2920		-46.875000
2921		-52.734375
2922		-46.875000
2923		-52.734375
2924		-44.921875
2925		-52.734375
2926		-44.921875
2927		-52.734375
2928		-44.921875
2929		-52.734375
2930		-44.921875
2931		-50.781250
2932		-42.968750
2933		-46.875000
2934		-44.921875
2935		-46.875000
2936		-42.968750
2937		-46.875000
2938		-39.062500
2939		-46.875000
2940		-39.062500
2941		-44.921875
2942		-37.109375
2943		-42.968750
2944		-35.156250
2945		-41.015625
2946		-33.203125
2947		-39.062500
2948		-31.250000
2949		-37.109375
2950		-31.250000
2951		-33.203125
2952		-27.343750
2953		-31.250000
2954		-25.390625
2955		-31.250000
2956		-23.437500
2957		-29.296875
2958		-19.531250
2959		-25.390625
2960		-17.578125
2961		-23.437500
2962		-13.671875
2963		-21.484375
2964		-13.671875
2965		-17.578125
2966		-11.718750
2967		-13.671875
2968		-9.765625
2969		-11.718750
2970		-5.859375
2971		-9.765625
2972		-1.953125
2973		-7.812500
2974		0.000000
2975		-5.859375
2976		3.906250
2977		-1.953125
2978		5.859375
2979		0.000000
2980		7.812500
2981		3.906250
2982		11.718750
2983		5.859375
2984		11.718750
2985		11.718750
2986		15.625000
2987		11.718750
2988		19.531250
2989		13.671875
2990		21.484375
2991		15.625000
2992		25.390625
2993		19.531250
2994		27.343750
2995		21.484375
2996		29.296875
2997		23.437500
2998		33.203125
2999		27.343750
3000		33.203125
3001		31.250000
3002		35.156250
3003		33.203125
3004		39.062500
3005		33.203125
3006		41.015625
3007		35.156250
3008		42.968750
3009		37.109375
3010		44.921875
3011		39.062500
3012		46.875000
3013		41.015625
3014		48.828125
3015		42.968750
3016		50.781250
3017		46.875000
3018		48.828125
3019		48.828125
3020		50.781250
3021		46.875000
3022		54.687500
3023		48.828125
3024		56.640625
3025		50.781250
3026		56.640625
3027		50.781250
3028		58.593750
3029		52.734375
3030		58.593750
3031		52.734375
3032		60.546875
3033		54.687500
3034		60.546875
3035		56.640625
3036		58.593750
3037		54.687500
3038		60.546875
3039		54.687500
3040		62.500000
3041		54.687500
3042		62.500000
3043		54.687500
3044		62.500000
3045		54.687500
3046		62.500000
3047		54.687500
3048		62.500000
3049		54.687500
3050		62.500000
3051		56.640625
3052		58.593750
3053		54.687500
3054		58.593750
3055		52.734375
3056		60.546875
3057		52.734375
3058		60.546875
3059		50.781250
3060		58.593750
3061		50.781250
3062		58.593750
3063		48.828125
3064		56.640625
3065		48.828125
3066		54.687500
3067		48.828125
3068		54.687500
3069		46.875000
3070		50.781250
3071		42.968750
3072		50.781250
3073		42.968750
3074		50.781250
3075		41.015625
3076		48.828125
3077		39.062500
3078		46.875000
3079		37.109375
3080		44.921875
3081		35.156250
3082		42.968750
3083		35.156250
3084		41.015625
3085		33.203125
3086		37.109375
3087		29.296875
3088		33.203125
3089		25.390625
3090		35.156250
3091		23.437500
3092		31.250000
3093		21.484375
3094		29.296875
3095		17.578125
3096		25.390625
3097		15.625000
3098		23.437500
3099		13.671875
3100		21.484375
3101		11.718750
3102		15.625000
3103		9.765625
3104		13.671875
3105		3.906250
3106		11.718750
3107		1.953125
3108		11.718750
3109		0.000000
3110		7.812500
3111		-3.906250
3112		5.859375
3113		-7.812500
3114		1.953125
3115		-9.765625
3116		0.000000
3117		-9.765625
3118		-3.906250
3119		-11.718750
3120		-7.812500
3121		-17.578125
3122		-9.765625
3123		-19.531250
3124		-9.765625
3125		-21.484375
3126		-13.671875
3127		-25.390625
3128		-15.625000
3129		-27.343750
3130		-17.578125
3131		-29.296875
3132		-19.531250
3133		-31.250000
3134		-23.437500
3135		-31.250000
3136		-27.343750
3137		-33.203125
3138		-29.296875
3139		-39.062500
3140		-29.296875
3141		-41.015625
3142		-31.250000
3143		-41.015625
3144		-33.203125
3145		-42.968750
3146		-35.156250
3147		-44.921875
3148		-37.109375
3149		-46.875000
3150		-39.062500
3151		-44.921875
3152		-39.062500
3153		-46.875000
3154		-42.968750
3155		-50.781250
3156		-42.968750
3157		-50.781250
3158		-42.968750
3159		-52.734375
3160		-44.921875
3161		-52.734375
3162		-44.921875
3163		-52.734375
3164		-46.875000
3165		-52.734375
3166		-46.875000
3167		-54.687500
3168		-46.875000
3169		-50.781250
3170		-48.828125
3171		-50.781250
3172		-46.875000
3173		-54.687500
3174		-46.875000
3175		-52.734375
3176		-46.875000
3177		-52.734375
3178		-44.921875
3179		-52.734375
3180		-44.921875
3181		-50.781250
3182		-44.921875
3183		-50.781250
3184		-42.968750
3185		-46.875000
3186		-44.921875
3187		-46.875000
3188		-42.968750
3189		-46.875000
3190		-39.062500
3191		-44.921875
3192		-37.109375
3193		-44.921875
3194		-37.109375
3195		-42.968750
3196		-35.156250
3197		-41.015625
3198		-33.203125
3199		-39.062500
3200		-31.250000
3201		-37.109375
3202		-29.296875
3203		-33.203125
3204		-29.296875
3205		-31.250000
3206		-25.390625
3207		-31.250000
3208		-23.437500
3209		-29.296875
3210		-19.531250
3211		-25.390625
3212		-17.578125
3213		-23.437500
3214		-15.625000
3215		-19.531250
3216		-11.718750
3217		-19.531250
3218		-9.765625
3219		-13.671875
3220		-9.765625
3221		-11.718750
3222		-5.859375
3223		-9.765625
3224		-1.953125
3225		-7.812500
3226		0.000000
3227		-5.859375
3228		3.906250
3229		-1.953125
3230		5.859375
3231		0.000000
3232		9.765625
3233		1.953125
3234		11.718750
3235		5.859375
3236		11.718750
3237		9.765625
3238		15.625000
3239		11.718750
3240		19.531250
3241		13.671875
3242		21.484375
3243		15.625000
3244		25.390625
3245		19.531250
3246		27.343750
3247		21.484375
3248		29.296875
3249		23.437500
3250		33.203125
3251		25.390625
3252		33.203125
3253		31.250000
3254		35.156250
3255		33.203125
3256		37.109375
3257		33.203125
3258		41.015625
3259		35.156250
3260		42.968750
3261		37.109375
3262		44.921875
3263		39.062500
3264		46.875000
3265		39.062500
3266		48.828125
3267		42.968750
3268		50.781250
3269		46.875000
3270		50.781250
3271		48.828125
3272		50.781250
3273		48.828125
3274		54.687500
3275		48.828125
3276		56.640625
3277		50.781250
3278		56.640625
3279		50.781250
3280		58.593750
3281		50.781250
3282		58.593750
3283		52.734375
3284		58.593750
3285		54.687500
3286		60.546875
3287		56.640625
3288		58.593750
3289		54.687500
3290		62.500000
3291		54.687500
3292		62.500000
3293		56.640625
3294		62.500000
3295		54.687500
3296		62.500000
3297		54.687500
3298		62.500000
3299		54.687500
3300		62.500000
3301		54.687500
3302		62.500000
3303		56.640625
3304		58.593750
3305		56.640625
3306		58.593750
3307		52.734375
3308		60.546875
3309		52.734375
3310		60.546875
3311		50.781250
3312		58.593750
3313		50.781250
3314		58.593750
3315		50.781250
3316		56.640625
3317		48.828125
3318		54.687500
3319		48.828125
3320		54.687500
3321		48.828125
3322		50.781250
3323		42.968750
3324		50.781250
3325		42.968750
3326		50.781250
3327		41.015625
3328		48.828125
3329		39.062500
3330		44.921875
3331		37.109375
3332		44.921875
3333		35.156250
3334		42.968750
3335		33.203125
3336		41.015625
3337		33.203125
3338		35.156250
3339		29.296875
3340		33.203125
3341		27.343750
3342		33.203125
3343		25.390625
3344		29.296875
3345		23.437500
3346		27.343750
3347		19.531250
3348		25.390625
3349		17.578125
3350		23.437500
3351		13.671875
3352		19.531250
3353		11.718750
3354		17.578125
3355		9.765625
3356		13.671875
3357		5.859375
3358		11.718750
3359		3.906250
3360		9.765625
3361		0.000000
3362		5.859375
3363		-1.953125
3364		3.906250
3365		-3.906250
3366		1.953125
3367		-7.812500
3368		-1.953125
3369		-9.765625
3370		-1.953125
3371		-11.718750
3372		-7.812500
3373		-17.578125
3374		-9.765625
3375		-19.531250
3376		-11.718750
3377		-19.531250
3378		-15.625000
3379		-21.484375
3380		-17.578125
3381		-25.390625
3382		-19.531250
3383		-27.343750
3384		-21.484375
3385		-31.250000
3386		-23.437500
3387		-31.250000
3388		-27.343750
3389		-33.203125
3390		-29.296875
3391		-37.109375
3392		-31.250000
3393		-39.062500
3394		-33.203125
3395		-39.062500
3396		-35.156250
3397		-41.015625
3398		-37.109375
3399		-42.968750
3400		-39.062500
3401		-44.921875
3402		-39.062500
3403		-46.875000
3404		-41.015625
3405		-46.875000
3406		-42.968750
3407		-48.828125
3408		-44.921875
3409		-48.828125
3410		-44.921875
3411		-50.781250
3412		-46.875000
3413		-50.781250
3414		-46.875000
3415		-50.781250
3416		-48.828125
3417		-52.734375
3418		-46.875000
3419		-52.734375
3420		-48.828125
3421		-50.781250
3422		-48.828125
3423		-52.734375
3424		-48.828125
3425		-50.781250
3426		-48.828125
3427		-50.781250
3428		-48.828125
3429		-50.781250
3430		-46.875000
3431		-50.781250
3432		-46.875000
3433		-50.781250
3434		-44.921875
3435		-48.828125
3436		-44.921875
3437		-46.875000
3438		-44.921875
3439		-46.875000
3440		-42.968750
3441		-46.875000
3442		-41.015625
3443		-44.921875
3444		-39.062500
3445		-42.968750
3446		-39.062500
3447		-41.015625
3448		-37.109375
3449		-39.062500
3450		-35.156250
3451		-37.109375
3452		-33.203125
3453		-35.156250
3454		-31.250000
3455		-33.203125
3456		-29.296875
3457		-31.250000
3458		-25.390625
3459		-29.296875
3460		-25.390625
3461		-27.343750
3462		-21.484375
3463		-23.437500
3464		-19.531250
3465		-21.484375
3466		-17.578125
3467		-19.531250
3468		-15.625000
3469		-17.578125
3470		-11.718750
3471		-13.671875
3472		-9.765625
3473		-11.718750
3474		-5.859375
3475		-7.812500
3476		-3.906250
3477		-5.859375
3478		-1.953125
3479		-3.906250
3480		1.953125
3481		0.000000
3482		3.906250
3483		1.953125
3484		7.812500
3485		3.906250
3486		9.765625
3487		5.859375
3488		11.718750
3489		9.765625
3490		15.625000
3491		13.671875
3492		17.578125
3493		15.625000
3494		19.531250
3495		17.578125
3496		23.437500
3497		19.531250
3498		25.390625
3499		23.437500
3500		27.343750
3501		25.390625
3502		31.250000
3503		29.296875
3504		33.203125
3505		31.250000
3506		35.156250
3507		33.203125
3508		37.109375
3509		35.156250
3510		39.062500
3511		37.109375
3512		41.015625
3513		39.062500
3514		42.968750
3515		39.062500
3516		44.921875
3517		42.968750
3518		46.875000
3519		44.921875
3520		48.828125
3521		46.875000
3522		48.828125
3523		48.828125
3524		50.781250
3525		48.828125
3526		52.734375
3527		50.781250
3528		54.687500
3529		50.781250
3530		54.687500
3531		52.734375
3532		56.640625
3533		54.687500
3534		56.640625
3535		54.687500
3536		58.593750
3537		54.687500
3538		58.593750
3539		56.640625
3540		58.593750
3541		56.640625
3542		60.546875
3543		56.640625
3544		60.546875
3545		56.640625
3546		60.546875
3547		56.640625
3548		60.546875
3549		56.640625
3550		60.546875
3551		56.640625
3552		60.546875
3553		56.640625
3554		60.546875
3555		56.640625
3556		58.593750
3557		56.640625
3558		58.593750
3559		54.687500
3560		58.593750
3561		54.687500
3562		58.593750
3563		52.734375
3564		56.640625
3565		52.734375
3566		56.640625
3567		50.781250
3568		56.640625
3569		50.781250
3570		54.687500
3571		48.828125
3572		52.734375
3573		48.828125
3574		50.781250
3575		44.921875
3576		48.828125
3577		44.921875
3578		48.828125
3579		42.968750
3580		46.875000
3581		41.015625
3582		44.921875
3583		39.062500
3584		42.968750
3585		35.156250
3586		41.015625
3587		33.203125
3588		39.062500
3589		33.203125
3590		37.109375
3591		29.296875
3592		33.203125
3593		27.343750
3594		33.203125
3595		25.390625
3596		29.296875
3597		23.437500
3598		27.343750
3599		19.531250
3600		25.390625
3601		17.578125
3602		21.484375
3603		13.671875
3604		19.531250
3605		11.718750
3606		17.578125
3607		9.765625
3608		13.671875
3609		7.812500
3610		11.718750
3611		3.906250
3612		9.765625
3613		1.953125
3614		5.859375
3615		-1.953125
3616		3.906250
3617		-3.906250
3618		0.000000
3619		-5.859375
3620		-1.953125
3621		-9.765625
3622		-3.906250
3623		-11.718750
3624		-7.812500
3625		-15.625000
3626		-9.765625
3627		-17.578125
3628		-13.671875
3629		-19.531250
3630		-15.625000
3631		-21.484375
3632		-17.578125
3633		-25.390625
3634		-19.531250
3635		-27.343750
3636		-21.484375
3637		-29.296875
3638		-25.390625
3639		-31.250000
3640		-27.343750
3641		-33.203125
3642		-29.296875
3643		-35.156250
3644		-31.250000
3645		-37.109375
3646		-33.203125
3647		-39.062500
3648		-35.156250
3649		-41.015625
3650		-37.109375
3651		-42.968750
3652		-39.062500
3653		-44.921875
3654		-41.015625
3655		-44.921875
3656		-41.015625
3657		-46.875000
3658		-42.968750
3659		-48.828125
3660		-44.921875
3661		-48.828125
3662		-44.921875
3663		-48.828125
3664		-44.921875
3665		-50.781250
3666		-46.875000
3667		-50.781250
3668		-46.875000
3669		-50.781250
3670		-48.828125
3671		-52.734375
3672		-48.828125
3673		-50.781250
3674		-48.828125
3675		-50.781250
3676		-48.828125
3677		-52.734375
3678		-48.828125
3679		-50.781250
3680		-48.828125
3681		-50.781250
3682		-46.875000
3683		-50.781250
3684		-46.875000
3685		-50.781250
3686		-46.875000
3687		-48.828125
3688		-44.921875
3689		-48.828125
3690		-44.921875
3691		-46.875000
3692		-42.968750
3693		-44.921875
3694		-41.015625
3695		-42.968750
3696		-39.062500
3697		-42.968750
3698		-39.062500
3699		-41.015625
3700		-37.109375
3701		-39.062500
3702		-35.156250
3703		-37.109375
3704		-33.203125
3705		-35.156250
3706		-31.250000
3707		-33.203125
3708		-29.296875
3709		-31.250000
3710		-25.390625
3711		-29.296875
3712		-23.437500
3713		-27.343750
3714		-21.484375
3715		-23.437500
3716		-19.531250
3717		-21.484375
3718		-17.578125
3719		-19.531250
3720		-15.625000
3721		-17.578125
3722		-11.718750
3723		-13.671875
3724		-9.765625
3725		-11.718750
3726		-7.812500
3727		-9.765625
3728		-3.906250
3729		-5.859375
3730		-1.953125
3731		-3.906250
3732		1.953125
3733		0.000000
3734		3.906250
3735		1.953125
3736		7.812500
3737		5.859375
3738		9.765625
3739		7.812500
3740		11.718750
3741		9.765625
3742		15.625000
3743		13.671875
3744		17.578125
3745		15.625000
3746		19.531250
3747		17.578125
3748		23.437500
3749		21.484375
3750		25.390625
3751		23.437500
3752		27.343750
3753		25.390625
3754		29.296875
3755		27.343750
3756		33.203125
3757		31.250000
3758		35.156250
3759		33.203125
3760		37.109375
3761		35.156250
3762		39.062500
3763		37.109375
3764		41.015625
3765		39.062500
3766		42.968750
3767		41.015625
3768		44.921875
3769		42.968750
3770		46.875000
3771		44.921875
3772		48.828125
3773		46.875000
3774		50.781250
3775		48.828125
3776		50.781250
3777		48.828125
3778		52.734375
3779		50.781250
3780		54.687500
3781		52.734375
3782		54.687500
3783		52.734375
3784		56.640625
3785		54.687500
3786		56.640625
3787		54.687500
3788		58.593750
3789		54.687500
3790		58.593750
3791		56.640625
3792		58.593750
3793		56.640625
3794		60.546875
3795		56.640625
3796		60.546875
3797		56.640625
3798		60.546875
3799		56.640625
3800		60.546875
3801		56.640625
3802		60.546875
3803		56.640625
3804		60.546875
3805		56.640625
3806		60.546875
3807		56.640625
3808		58.593750
3809		56.640625
3810		58.593750
3811		54.687500
3812		58.593750
3813		54.687500
3814		58.593750
3815		54.687500
3816		58.593750
3817		52.734375
3818		56.640625
3819		50.781250
3820		56.640625
3821		50.781250
3822		52.734375
3823		48.828125
3824		52.734375
3825		48.828125
3826		50.781250
3827		46.875000
3828		48.828125
3829		44.921875
3830		48.828125
3831		42.968750
3832		46.875000
3833		41.015625
3834		44.921875
3835		39.062500
3836		42.968750
3837		37.109375
3838		41.015625
3839		35.156250
3840		39.062500
3841		33.203125
3842		37.109375
3843		29.296875
3844		35.156250
3845		27.343750
3846		33.203125
3847		25.390625
3848		29.296875
3849		23.437500
3850		27.343750
3851		19.531250
3852		25.390625
3853		17.578125
3854		21.484375
3855		15.625000
3856		21.484375
3857		13.671875
3858		17.578125
3859		9.765625
3860		13.671875
3861		7.812500
3862		11.718750
3863		3.906250
3864		9.765625
3865		1.953125
3866		5.859375
3867		0.000000
3868		3.906250
3869		-3.906250
3870		0.000000
3871		-5.859375
3872		-1.953125
3873		-9.765625
3874		-3.906250
3875		-11.718750
3876		-7.812500
3877		-15.625000
3878		-9.765625
3879		-17.578125
3880		-11.718750
3881		-19.531250
3882		-15.625000
3883		-21.484375
3884		-17.578125
3885		-23.437500
3886		-19.531250
3887		-27.343750
3888		-23.437500
3889		-29.296875
3890		-23.437500
3891		-31.250000
3892		-27.343750
3893		-33.203125
3894		-29.296875
3895		-35.156250
3896		-31.250000
3897		-37.109375
3898		-33.203125
3899		-39.062500
3900		-35.156250
3901		-41.015625
3902		-37.109375
3903		-42.968750
3904		-39.062500
3905		-42.968750
3906		-41.015625
3907		-44.921875
3908		-41.015625
3909		-46.875000
3910		-42.968750
3911		-48.828125
3912		-44.921875
3913		-48.828125
3914		-44.921875
3915		-48.828125
3916		-46.875000
3917		-50.781250
3918		-46.875000
3919		-50.781250
3920		-46.875000
3921		-50.781250
3922		-46.875000
3923		-50.781250
3924		-46.875000
3925		-50.781250
3926		-48.828125
3927		-50.781250
3928		-48.828125
3929		-52.734375
3930		-46.875000
3931		-50.781250
3932		-46.875000
3933		-50.781250
3934		-46.875000
3935		-48.828125
3936		-46.875000
3937		-48.828125
3938		-44.921875
3939		-48.828125
3940		-44.921875
3941		-48.828125
3942		-44.921875
3943		-46.875000
3944		-42.968750
3945		-44.921875
3946		-41.015625
3947		-44.921875
3948		-39.062500
3949		-41.015625
3950		-37.109375
3951		-41.015625
3952		-37.109375
3953		-39.062500
3954		-35.156250
3955		-37.109375
3956		-33.203125
3957		-35.156250
3958		-31.250000
3959		-33.203125
3960		-29.296875
3961		-31.250000
3962		-25.390625
3963		-29.296875
3964		-23.437500
3965		-25.390625
3966		-21.484375
3967		-23.437500
3968		-19.531250
3969		-21.484375
3970		-17.578125
3971		-19.531250
3972		-13.671875
3973		-15.625000
3974		-11.718750
3975		-13.671875
3976		-9.765625
3977		-11.718750
3978		-5.859375
3979		-9.765625
3980		-3.906250
3981		-5.859375
3982		-1.953125
3983		-3.906250
3984		1.953125
3985		0.000000
3986		3.906250
3987		1.953125
3988		7.812500
3989		5.859375
3990		9.765625
3991		7.812500
3992		11.718750
3993		9.765625
3994		15.625000
3995		13.671875
3996		19.531250
3997		15.625000
3998		21.484375
3999		17.578125
4000		23.437500
4001		21.484375
4002		25.390625
4003		23.437500
4004		29.296875
4005		25.390625
4006		29.296875
4007		27.343750
4008		33.203125
4009		31.250000
4010		35.156250
4011		33.203125
4012		37.109375
4013		35.156250
4014		41.015625
4015		37.109375
4016		41.015625
4017		39.062500
4018		42.968750
4019		41.015625
4020		44.921875
4021		42.968750
4022		46.875000
4023		44.921875
4024		48.828125
4025		44.921875
4026		50.781250
4027		48.828125
4028		50.781250
4029		48.828125
4030		52.734375
4031		50.781250
4032		54.687500
4033		52.734375
4034		56.640625
4035		52.734375
4036		56.640625
4037		54.687500
4038		56.640625
4039		54.687500
4040		58.593750
4041		54.687500
4042		58.593750
4043		56.640625
4044		58.593750
4045		56.640625
4046		60.546875
4047		56.640625
4048		60.546875
4049		56.640625
4050		60.546875
4051		56.640625
4052		60.546875
4053		58.593750
4054		60.546875
4055		56.640625
4056		60.546875
4057		56.640625
4058		60.546875
4059		56.640625
4060		58.593750
4061		56.640625
4062		58.593750
4063		54.687500
4064		58.593750
4065		54.687500
4066		58.593750
4067		54.687500
4068		56.640625
4069		52.734375
4070		56.640625
4071		50.781250
4072		54.687500
4073		50.781250
4074		54.687500
4075		48.828125
4076		52.734375
4077		48.828125
4078		50.781250
4079		44.921875
4080		50.781250
4081		44.921875
4082		48.828125
4083		42.968750
4084		46.875000
4085		41.015625
4086		44.921875
4087		39.062500
4088		42.968750
4089		37.109375
4090		41.015625
4091		35.156250
4092		39.062500
4093		33.203125
4094		37.109375
4095		31.250000
4096		35.156250
4097		27.343750
4098		33.203125
4099		25.390625
4100		29.296875
4101		23.437500
4102		27.343750
4103		19.531250
4104		25.390625
4105		17.578125
4106		23.437500
4107		15.625000
4108		19.531250
4109		13.671875
4110		17.578125
4111		9.765625
4112		13.671875
4113		7.812500
4114		11.718750
4115		5.859375
4116		9.765625
4117		1.953125
4118		7.812500
4119		-1.953125
4120		3.906250
4121		-3.906250
4122		0.000000
4123		-7.812500
4124		-1.953125
4125		-9.765625
4126		-3.906250
4127		-11.718750
4128		-7.812500
4129		-15.625000
4130		-9.765625
4131		-17.578125
4132		-11.718750
4133		-19.531250
4134		-15.625000
4135		-21.484375
4136		-17.578125
4137		-25.390625
4138		-19.531250
4139		-27.343750
4140		-21.484375
4141		-29.296875
4142		-25.390625
4143		-31.250000
4144		-27.343750
4145		-33.203125
4146		-29.296875
4147		-35.156250
4148		-31.250000
4149		-37.109375
4150		-33.203125
4151		-39.062500
4152		-35.156250
4153		-41.015625
4154		-37.109375
4155		-42.968750
4156		-39.062500
4157		-42.968750
4158		-41.015625
4159		-44.921875
4160		-41.015625
4161		-46.875000
4162		-42.968750
4163		-46.875000
4164		-44.921875
4165		-48.828125
4166		-44.921875
4167		-50.781250
4168		-44.921875
4169		-50.781250
4170		-46.875000
4171		-50.781250
4172		-46.875000
4173		-50.781250
4174		-46.875000
4175		-52.734375
4176		-46.875000
4177		-50.781250
4178		-48.828125
4179		-50.781250
4180		-48.828125
4181		-50.781250
4182		-48.828125
4183		-50.781250
4184		-46.875000
4185		-50.781250
4186		-46.875000
4187		-48.828125
4188		-46.875000
4189		-48.828125
4190		-46.875000
4191		-48.828125
4192		-44.921875
4193		-46.875000
4194		-42.968750
4195		-46.875000
4196		-42.968750
4197		-44.921875
4198		-41.015625
4199		-42.968750
4200		-41.015625
4201		-42.968750
4202		-39.062500
4203		-41.015625
4204		-37.109375
4205		-39.062500
4206		-35.156250
4207		-37.109375
4208		-31.250000
4209		-35.156250
4210		-31.250000
4211		-33.203125
4212		-29.296875
4213		-31.250000
4214		-25.390625
4215		-29.296875
4216		-23.437500
4217		-25.390625
4218		-21.484375
4219		-23.437500
4220		-19.531250
4221		-21.484375
4222		-17.578125
4223		-19.531250
4224		-13.671875
4225		-17.578125
4226		-11.718750
4227		-15.625000
4228		-9.765625
4229		-9.765625
4230		-5.859375
4231		-7.812500
4232		-3.906250
4233		-5.859375
4234		0.000000
4235		-3.906250
4236		1.953125
4237		0.000000
4238		3.906250
4239		1.953125
4240		7.812500
4241		5.859375
4242		9.765625
4243		7.812500
4244		11.718750
4245		11.718750
4246		15.625000
4247		13.671875
4248		17.578125
4249		15.625000
4250		21.484375
4251		17.578125
4252		23.437500
4253		21.484375
4254		25.390625
4255		23.437500
4256		27.343750
4257		25.390625
4258		31.250000
4259		27.343750
4260		33.203125
4261		31.250000
4262		35.156250
4263		33.203125
4264		37.109375
4265		33.203125
4266		39.062500
4267		37.109375
4268		41.015625
4269		39.062500
4270		42.968750
4271		41.015625
4272		44.921875
4273		42.968750
4274		46.875000
4275		44.921875
4276		48.828125
4277		44.921875
4278		50.781250
4279		48.828125
4280		50.781250
4281		48.828125
4282		54.687500
4283		50.781250
4284		54.687500
4285		50.781250
4286		54.687500
4287		52.734375
4288		56.640625
4289		54.687500
4290		56.640625
4291		54.687500
4292		58.593750
4293		54.687500
4294		60.546875
4295		56.640625
4296		58.593750
4297		56.640625
4298		60.546875
4299		56.640625
4300		60.546875
4301		56.640625
4302		60.546875
4303		56.640625
4304		60.546875
4305		58.593750
4306		60.546875
4307		58.593750
4308		60.546875
4309		56.640625
4310		60.546875
4311		56.640625
4312		60.546875
4313		56.640625
4314		58.593750
4315		54.687500
4316		58.593750
4317		54.687500
4318		58.593750
4319		52.734375
4320		56.640625
4321		52.734375
4322		56.640625
4323		52.734375
4324		54.687500
4325		50.781250
4326		54.687500
4327		48.828125
4328		54.687500
4329		46.875000
4330		50.781250
4331		44.921875
4332		50.781250
4333		44.921875
4334		48.828125
4335		42.968750
4336		46.875000
4337		41.015625
4338		44.921875
4339		39.062500
4340		42.968750
4341		37.109375
4342		41.015625
4343		35.156250
4344		39.062500
4345		33.203125
4346		37.109375
4347		31.250000
4348		35.156250
4349		27.343750
4350		33.203125
4351		25.390625
4352		29.296875
4353		23.437500
4354		29.296875
4355		21.484375
4356		25.390625
4357		17.578125
4358		23.437500
4359		15.625000
4360		19.531250
4361		13.671875
4362		17.578125
4363		9.765625
4364		13.671875
4365		7.812500
4366		11.718750
4367		3.906250
4368		9.765625
4369		1.953125
4370		5.859375
4371		0.000000
4372		3.906250
4373		-3.906250
4374		1.953125
4375		-5.859375
4376		-1.953125
4377		-9.765625
4378		-3.906250
4379		-11.718750
4380		-7.812500
4381		-13.671875
4382		-9.765625
4383		-15.625000
4384		-11.718750
4385		-19.531250
4386		-13.671875
4387		-21.484375
4388		-17.578125
4389		-25.390625
4390		-19.531250
4391		-25.390625
4392		-23.437500
4393		-29.296875
4394		-23.437500
4395		-31.250000
4396		-25.390625
4397		-33.203125
4398		-29.296875
4399		-37.109375
4400		-31.250000
4401		-37.109375
4402		-33.203125
4403		-39.062500
4404		-35.156250
4405		-41.015625
4406		-37.109375
4407		-42.968750
4408		-39.062500
4409		-44.921875
4410		-41.015625
4411		-44.921875
4412		-41.015625
4413		-46.875000
4414		-42.968750
4415		-48.828125
4416		-44.921875
4417		-48.828125
4418		-44.921875
4419		-48.828125
4420		-46.875000
4421		-48.828125
4422		-46.875000
4423		-50.781250
4424		-46.875000
4425		-50.781250
4426		-46.875000
4427		-52.734375
4428		-46.875000
4429		-50.781250
4430		-48.828125
4431		-50.781250
4432		-48.828125
4433		-50.781250
4434		-46.875000
4435		-50.781250
4436		-48.828125
4437		-50.781250
4438		-46.875000
4439		-50.781250
4440		-46.875000
4441		-48.828125
4442		-46.875000
4443		-48.828125
4444		-44.921875
4445		-48.828125
4446		-42.968750
4447		-46.875000
4448		-42.968750
4449		-44.921875
4450		-41.015625
4451		-42.968750
4452		-41.015625
4453		-42.968750
4454		-39.062500
4455		-41.015625
4456		-37.109375
4457		-39.062500
4458		-35.156250
4459		-37.109375
4460		-33.203125
4461		-35.156250
4462		-31.250000
4463		-33.203125
4464		-29.296875
4465		-31.250000
4466		-27.343750
4467		-29.296875
4468		-25.390625
4469		-27.343750
4470		-21.484375
4471		-23.437500
4472		-19.531250
4473		-21.484375
4474		-17.578125
4475		-19.531250
4476		-15.625000
4477		-15.625000
4478		-11.718750
4479		-13.671875
4480		-9.765625
4481		-11.718750
4482		-7.812500
4483		-7.812500
4484		-3.906250
4485		-5.859375
4486		0.000000
4487		-3.906250
4488		1.953125
4489		0.000000
4490		3.906250
4491		1.953125
4492		5.859375
4493		3.906250
4494		9.765625
4495		7.812500
4496		11.718750
4497		9.765625
4498		13.671875
4499		13.671875
4500		17.578125
4501		15.625000
4502		21.484375
4503		19.531250
4504		23.437500
4505		21.484375
4506		25.390625
4507		23.437500
4508		27.343750
4509		25.390625
4510		31.250000
4511		29.296875
4512		33.203125
4513		31.250000
4514		35.156250
4515		33.203125
4516		37.109375
4517		35.156250
4518		39.062500
4519		37.109375
4520		41.015625
4521		39.062500
4522		42.968750
4523		41.015625
4524		44.921875
4525		42.968750
4526		46.875000
4527		44.921875
4528		48.828125
4529		44.921875
4530		50.781250
4531		48.828125
4532		50.781250
4533		48.828125
4534		52.734375
4535		50.781250
4536		54.687500
4537		52.734375
4538		54.687500
4539		52.734375
4540		56.640625
4541		54.687500
4542		58.593750
4543		54.687500
4544		58.593750
4545		54.687500
4546		58.593750
4547		56.640625
4548		58.593750
4549		56.640625
4550		58.593750
4551		56.640625
4552		60.546875
4553		56.640625
4554		60.546875
4555		58.593750
4556		60.546875
4557		58.593750
4558		60.546875
4559		56.640625
4560		60.546875
4561		56.640625
4562		60.546875
4563		56.640625
4564		60.546875
4565		56.640625
4566		58.593750
4567		54.687500
4568		58.593750
4569		54.687500
4570		58.593750
4571		54.687500
4572		56.640625
4573		52.734375
4574		56.640625
4575		52.734375
4576		54.687500
4577		50.781250
4578		54.687500
4579		48.828125
4580		52.734375
4581		48.828125
4582		50.781250
4583		44.921875
4584		50.781250
4585		44.921875
4586		48.828125
4587		42.968750
4588		46.875000
4589		41.015625
4590		44.921875
4591		39.062500
4592		42.968750
4593		37.109375
4594		41.015625
4595		35.156250
4596		39.062500
4597		33.203125
4598		37.109375
4599		31.250000
4600		35.156250
4601		29.296875
4602		33.203125
4603		25.390625
4604		31.250000
4605		23.437500
4606		27.343750
4607		21.484375
4608		25.390625
4609		17.578125
4610		23.437500
4611		15.625000
4612		19.531250
4613		13.671875
4614		17.578125
4615		9.765625
4616		15.625000
4617		7.812500
4618		13.671875
4619		5.859375
4620		9.765625
4621		1.953125
4622		7.812500
4623		0.000000
4624		3.906250
4625		-3.906250
4626		1.953125
4627		-5.859375
4628		-1.953125
4629		-9.765625
4630		-3.906250
4631		-11.718750
4632		-7.812500
4633		-13.671875
4634		-9.765625
4635		-15.625000
4636		-11.718750
4637		-19.531250
4638		-13.671875
4639		-21.484375
4640		-17.578125
4641		-23.437500
4642		-19.531250
4643		-27.343750
4644		-21.484375
4645		-29.296875
4646		-23.437500
4647		-31.250000
4648		-25.390625
4649		-33.203125
4650		-29.296875
4651		-35.156250
4652		-31.250000
4653		-37.109375
4654		-33.203125
4655		-39.062500
4656		-35.156250
4657		-41.015625
4658		-35.156250
4659		-41.015625
4660		-39.062500
4661		-42.968750
4662		-39.062500
4663		-44.921875
4664		-41.015625
4665		-44.921875
4666		-42.968750
4667		-46.875000
4668		-44.921875
4669		-48.828125
4670		-42.968750
4671		-48.828125
4672		-44.921875
4673		-48.828125
4674		-46.875000
4675		-50.781250
4676		-46.875000
4677		-50.781250
4678		-46.875000
4679		-50.781250
4680		-46.875000
4681		-50.781250
4682		-48.828125
4683		-50.781250
4684		-48.828125
4685		-50.781250
4686		-46.875000
4687		-50.781250
4688		-46.875000
4689		-50.781250
4690		-46.875000
4691		-50.781250
4692		-44.921875
4693		-48.828125
4694		-44.921875
4695		-46.875000
4696		-44.921875
4697		-46.875000
4698		-42.968750
4699		-44.921875
4700		-42.968750
4701		-44.921875
4702		-41.015625
4703		-42.968750
4704		-39.062500
4705		-41.015625
4706		-39.062500
4707		-41.015625
4708		-37.109375
4709		-39.062500
4710		-33.203125
4711		-37.109375
4712		-33.203125
4713		-35.156250
4714		-29.296875
4715		-33.203125
4716		-29.296875
4717		-31.250000
4718		-27.343750
4719		-27.343750
4720		-23.437500
4721		-25.390625
4722		-21.484375
4723		-23.437500
4724		-19.531250
4725		-21.484375
4726		-15.625000
4727		-17.578125
4728		-13.671875
4729		-15.625000
4730		-11.718750
4731		-13.671875
4732		-9.765625
4733		-9.765625
4734		-5.859375
4735		-7.812500
4736		-3.906250
4737		-5.859375
4738		0.000000
4739		-3.906250
4740		1.953125
4741		0.000000
4742		5.859375
4743		3.906250
4744		7.812500
4745		5.859375
4746		9.765625
4747		7.812500
4748		11.718750
4749		9.765625
4750		15.625000
4751		13.671875
4752		17.578125
4753		13.671875
4754		19.531250
4755		17.578125
4756		23.437500
4757		21.484375
4758		25.390625
4759		23.437500
4760		27.343750
4761		25.390625
4762		31.250000
4763		29.296875
4764		33.203125
4765		31.250000
4766		35.156250
4767		33.203125
4768		37.109375
4769		35.156250
4770		39.062500
4771		37.109375
4772		42.968750
4773		39.062500
4774		42.968750
4775		41.015625
4776		44.921875
4777		42.968750
4778		46.875000
4779		44.921875
4780		48.828125
4781		46.875000
4782		50.781250
4783		48.828125
4784		50.781250
4785		48.828125
4786		52.734375
4787		50.781250
4788		54.687500
4789		52.734375
4790		56.640625
4791		52.734375
4792		56.640625
4793		54.687500
4794		58.593750
4795		54.687500
4796		58.593750
4797		56.640625
4798		60.546875
4799		56.640625
4800		58.593750
4801		56.640625
4802		60.546875
4803		56.640625
4804		60.546875
4805		56.640625
4806		60.546875
4807		58.593750
4808		60.546875
4809		58.593750
4810		60.546875
4811		58.593750
4812		60.546875
4813		58.593750
4814		60.546875
4815		56.640625
4816		60.546875
4817		56.640625
4818		58.593750
4819		56.640625
4820		58.593750
4821		54.687500
4822		58.593750
4823		54.687500
4824		58.593750
4825		54.687500
4826		56.640625
4827		52.734375
4828		56.640625
4829		50.781250
4830		54.687500
4831		48.828125
4832		52.734375
4833		48.828125
4834		52.734375
4835		46.875000
4836		50.781250
4837		44.921875
4838		48.828125
4839		42.968750
4840		48.828125
4841		41.015625
4842		44.921875
4843		39.062500
4844		42.968750
4845		37.109375
4846		41.015625
4847		35.156250
4848		39.062500
4849		33.203125
4850		39.062500
4851		31.250000
4852		35.156250
4853		29.296875
4854		33.203125
4855		25.390625
4856		31.250000
4857		23.437500
4858		27.343750
4859		21.484375
4860		25.390625
4861		19.531250
4862		23.437500
4863		15.625000
4864		19.531250
4865		13.671875
4866		17.578125
4867		9.765625
4868		15.625000
4869		7.812500
4870		11.718750
4871		3.906250
4872		9.765625
4873		1.953125
4874		7.812500
4875		0.000000
4876		5.859375
4877		-3.906250
4878		1.953125
4879		-5.859375
4880		0.000000
4881		-7.812500
4882		-3.906250
4883		-11.718750
4884		-5.859375
4885		-13.671875
4886		-9.765625
4887		-15.625000
4888		-11.718750
4889		-19.531250
4890		-13.671875
4891		-21.484375
4892		-17.578125
4893		-23.437500
4894		-19.531250
4895		-25.390625
4896		-21.484375
4897		-29.296875
4898		-23.437500
4899		-31.250000
4900		-25.390625
4901		-33.203125
4902		-29.296875
4903		-35.156250
4904		-31.250000
4905		-37.109375
4906		-33.203125
4907		-39.062500
4908		-35.156250
4909		-41.015625
4910		-35.156250
4911		-42.968750
4912		-37.109375
4913		-42.968750
4914		-39.062500
4915		-44.921875
4916		-41.015625
4917		-44.921875
4918		-42.968750
4919		-46.875000
4920		-44.921875
4921		-48.828125
4922		-44.921875
4923		-48.828125
4924		-44.921875
4925		-48.828125
4926		-46.875000
4927		-50.781250
4928		-46.875000
4929		-50.781250
4930		-46.875000
4931		-50.781250
4932		-46.875000
4933		-50.781250
4934		-46.875000
4935		-50.781250
4936		-48.828125
4937		-50.781250
4938		-46.875000
4939		-50.781250
4940		-46.875000
4941		-50.781250
4942		-46.875000
4943		-48.828125
4944		-46.875000
4945		-48.828125
4946		-44.921875
4947		-46.875000
4948		-44.921875
4949		-46.875000
4950		-42.968750
4951		-44.921875
4952		-42.968750
4953		-44.921875
4954		-41.015625
4955		-42.968750
4956		-39.062500
4957		-41.015625
4958		-37.109375
4959		-39.062500
4960		-37.109375
4961		-37.109375
4962		-33.203125
4963		-37.109375
4964		-33.203125
4965		-35.156250
4966		-31.250000
4967		-33.203125
4968		-29.296875
4969		-29.296875
4970		-25.390625
4971		-29.296875
4972		-23.437500
4973		-25.390625
4974		-21.484375
4975		-23.437500
4976		-19.531250
4977		-21.484375
4978		-15.625000
4979		-17.578125
4980		-13.671875
4981		-15.625000
4982		-11.718750
4983		-13.671875
4984		-9.765625
4985		-9.765625
4986		-5.859375
4987		-7.812500
4988		-3.906250
4989		-5.859375
4990		-1.953125
4991		-1.953125
4992		1.953125
4993		0.000000
4994		3.906250
4995		1.953125
4996		7.812500
4997		5.859375
4998		11.718750
4999		7.812500
5000		13.671875
5001		11.718750
5002		15.625000
5003		13.671875
5004		17.578125
5005		15.625000
5006		21.484375
5007		19.531250
5008		23.437500
5009		21.484375
5010		27.343750
5011		23.437500
5012		29.296875
5013		27.343750
5014		31.250000
5015		29.296875
5016		33.203125
5017		31.250000
5018		35.156250
5019		33.203125
5020		37.109375
5021		35.156250
5022		39.062500
5023		37.109375
5024		41.015625
5025		41.015625
5026		42.968750
5027		41.015625
5028		44.921875
5029		42.968750
5030		46.875000
5031		44.921875
5032		48.828125
5033		46.875000
5034		50.781250
5035		48.828125
5036		52.734375
5037		50.781250
5038		54.687500
5039		50.781250
5040		54.687500
5041		52.734375
5042		56.640625
5043		52.734375
5044		56.640625
5045		54.687500
5046		58.593750
5047		54.687500
5048		58.593750
5049		54.687500
5050		60.546875
5051		56.640625
5052		60.546875
5053		56.640625
5054		60.546875
5055		56.640625
5056		60.546875
5057		58.593750
5058		60.546875
5059		58.593750
5060		62.500000
5061		58.593750
5062		60.546875
5063		56.640625
5064		62.500000
5065		58.593750
5066		60.546875
5067		56.640625
5068		60.546875
5069		56.640625
5070		58.593750
5071		56.640625
5072		60.546875
5073		54.687500
5074		58.593750
5075		54.687500
5076		58.593750
5077		54.687500
5078		56.640625
5079		52.734375
5080		56.640625
5081		50.781250
5082		54.687500
5083		48.828125
5084		52.734375
5085		48.828125
5086		52.734375
5087		46.875000
5088		50.781250
5089		44.921875
5090		50.781250
5091		42.968750
5092		46.875000
5093		41.015625
5094		44.921875
5095		39.062500
5096		42.968750
5097		37.109375
5098		41.015625
5099		35.156250
5100		41.015625
5101		33.203125
5102		39.062500
5103		31.250000
5104		35.156250
5105		27.343750
5106		33.203125
5107		25.390625
5108		31.250000
5109		23.437500
5110		29.296875
5111		21.484375
5112		25.390625
5113		19.531250
5114		23.437500
5115		15.625000
5116		21.484375
5117		13.671875
5118		17.578125
5119		11.718750
5120		15.625000
5121		7.812500
5122		11.718750
5123		5.859375
5124		9.765625
5125		1.953125
5126		7.812500
5127		0.000000
5128		3.906250
5129		-1.953125
5130		1.953125
5131		-5.859375
5132		0.000000
5133		-9.765625
5134		-3.906250
5135		-9.765625
5136		-5.859375
5137		-13.671875
5138		-9.765625
5139		-17.578125
5140		-11.718750
5141		-17.578125
5142		-13.671875
5143		-21.484375
5144		-15.625000
5145		-23.437500
5146		-19.531250
5147		-25.390625
5148		-21.484375
5149		-27.343750
5150		-23.437500
5151		-29.296875
5152		-25.390625
5153		-31.250000
5154		-29.296875
5155		-35.156250
5156		-31.250000
5157		-37.109375
5158		-31.250000
5159		-39.062500
5160		-33.203125
5161		-39.062500
5162		-37.109375
5163		-41.015625
5164		-37.109375
5165		-42.968750
5166		-39.062500
5167		-44.921875
5168		-41.015625
5169		-46.875000
5170		-42.968750
5171		-46.875000
5172		-42.968750
5173		-48.828125
5174		-44.921875
5175		-48.828125
5176		-44.921875
5177		-48.828125
5178		-44.921875
5179		-50.781250
5180		-46.875000
5181		-50.781250
5182		-46.875000
5183		-50.781250
5184		-46.875000
5185		-50.781250
5186		-46.875000
5187		-50.781250
5188		-48.828125
5189		-50.781250
5190		-46.875000
5191		-50.781250
5192		-46.875000
5193		-50.781250
5194		-46.875000
5195		-48.828125
5196		-44.921875
5197		-48.828125
5198		-44.921875
5199		-48.828125
5200		-44.921875
5201		-46.875000
5202		-42.968750
5203		-44.921875
5204		-42.968750
5205		-42.968750
5206		-41.015625
5207		-42.968750
5208		-39.062500
5209		-41.015625
5210		-37.109375
5211		-41.015625
5212		-37.109375
5213		-39.062500
5214		-35.156250
5215		-35.156250
5216		-31.250000
5217		-35.156250
5218		-29.296875
5219		-31.250000
5220		-27.343750
5221		-29.296875
5222		-25.390625
5223		-27.343750
5224		-23.437500
5225		-25.390625
5226		-21.484375
5227		-23.437500
5228		-19.531250
5229		-21.484375
5230		-15.625000
5231		-17.578125
5232		-13.671875
5233		-15.625000
5234		-11.718750
5235		-13.671875
5236		-9.765625
5237		-9.765625
5238		-5.859375
5239		-7.812500
5240		-1.953125
5241		-5.859375
5242		0.000000
5243		-1.953125
5244		1.953125
5245		0.000000
5246		3.906250
5247		3.906250
5248		7.812500
5249		5.859375
5250		9.765625
5251		7.812500
5252		13.671875
5253		11.718750
5254		15.625000
5255		13.671875
5256		17.578125
5257		15.625000
5258		21.484375
5259		19.531250
5260		23.437500
5261		21.484375
5262		25.390625
5263		23.437500
5264		29.296875
5265		27.343750
5266		31.250000
5267		29.296875
5268		33.203125
5269		31.250000
5270		35.156250
5271		33.203125
5272		37.109375
5273		35.156250
5274		39.062500
5275		37.109375
5276		41.015625
5277		39.062500
5278		44.921875
5279		41.015625
5280		46.875000
5281		42.968750
5282		46.875000
5283		44.921875
5284		48.828125
5285		46.875000
5286		50.781250
5287		48.828125
5288		52.734375
5289		50.781250
5290		52.734375
5291		50.781250
5292		54.687500
5293		52.734375
5294		56.640625
5295		54.687500
5296		56.640625
5297		54.687500
5298		58.593750
5299		56.640625
5300		58.593750
5301		56.640625
5302		60.546875
5303		56.640625
5304		60.546875
5305		56.640625
5306		60.546875
5307		56.640625
5308		62.500000
5309		58.593750
5310		62.500000
5311		58.593750
5312		60.546875
5313		58.593750
5314		60.546875
5315		58.593750
5316		62.500000
5317		58.593750
5318		60.546875
5319		56.640625
5320		60.546875
5321		56.640625
5322		60.546875
5323		56.640625
5324		60.546875
5325		54.687500
5326		58.593750
5327		54.687500
5328		58.593750
5329		54.687500
5330		56.640625
5331		52.734375
5332		56.640625
5333		50.781250
5334		54.687500
5335		48.828125
5336		54.687500
5337		48.828125
5338		52.734375
5339		46.875000
5340		50.781250
5341		44.921875
5342		50.781250
5343		42.968750
5344		48.828125
5345		41.015625
5346		46.875000
5347		39.062500
5348		42.968750
5349		39.062500
5350		41.015625
5351		35.156250
5352		41.015625
5353		33.203125
5354		39.062500
5355		31.250000
5356		35.156250
5357		29.296875
5358		33.203125
5359		27.343750
5360		31.250000
5361		23.437500
5362		29.296875
5363		21.484375
5364		27.343750
5365		19.531250
5366		23.437500
5367		15.625000
5368		21.484375
5369		13.671875
5370		17.578125
5371		11.718750
5372		15.625000
5373		9.765625
5374		13.671875
5375		5.859375
5376		11.718750
5377		3.906250
5378		7.812500
5379		0.000000
5380		3.906250
5381		-1.953125
5382		1.953125
5383		-5.859375
5384		0.000000
5385		-9.765625
5386		-3.906250
5387		-9.765625
5388		-5.859375
5389		-13.671875
5390		-7.812500
5391		-15.625000
5392		-11.718750
5393		-17.578125
5394		-13.671875
5395		-21.484375
5396		-15.625000
5397		-23.437500
5398		-17.578125
5399		-27.343750
5400		-21.484375
5401		-27.343750
5402		-23.437500
5403		-29.296875
5404		-25.390625
5405		-31.250000
5406		-27.343750
5407		-35.156250
5408		-31.250000
5409		-37.109375
5410		-31.250000
5411		-37.109375
5412		-35.156250
5413		-39.062500
5414		-35.156250
5415		-41.015625
5416		-37.109375
5417		-42.968750
5418		-39.062500
5419		-44.921875
5420		-41.015625
5421		-44.921875
5422		-42.968750
5423		-46.875000
5424		-42.968750
5425		-48.828125
5426		-42.968750
5427		-48.828125
5428		-44.921875
5429		-48.828125
5430		-44.921875
5431		-48.828125
5432		-46.875000
5433		-48.828125
5434		-46.875000
5435		-50.781250
5436		-46.875000
5437		-50.781250
5438		-46.875000
5439		-50.781250
5440		-46.875000
5441		-50.781250
5442		-46.875000
5443		-50.781250
5444		-46.875000
5445		-50.781250
5446		-46.875000
5447		-48.828125
5448		-44.921875
5449		-48.828125
5450		-44.921875
5451		-46.875000
5452		-42.968750
5453		-46.875000
5454		-42.968750
5455		-44.921875
5456		-42.968750
5457		-42.968750
5458		-41.015625
5459		-44.921875
5460		-39.062500
5461		-41.015625
5462		-37.109375
5463		-39.062500
5464		-35.156250
5465		-37.109375
5466		-33.203125
5467		-37.109375
5468		-31.250000
5469		-33.203125
5470		-29.296875
5471		-33.203125
5472		-27.343750
5473		-29.296875
5474		-25.390625
5475		-27.343750
5476		-23.437500
5477		-25.390625
5478		-21.484375
5479		-23.437500
5480		-19.531250
5481		-19.531250
5482		-15.625000
5483		-17.578125
5484		-13.671875
5485		-15.625000
5486		-11.718750
5487		-13.671875
5488		-7.812500
5489		-9.765625
5490		-5.859375
5491		-7.812500
5492		-1.953125
5493		-5.859375
5494		0.000000
5495		-1.953125
5496		1.953125
5497		0.000000
5498		5.859375
5499		1.953125
5500		7.812500
5501		5.859375
5502		9.765625
5503		7.812500
5504		13.671875
5505		11.718750
5506		15.625000
5507		13.671875
5508		17.578125
5509		15.625000
5510		21.484375
5511		19.531250
5512		23.437500
5513		21.484375
5514		27.343750
5515		23.437500
5516		29.296875
5517		25.390625
5518		31.250000
5519		29.296875
5520		33.203125
5521		31.250000
5522		35.156250
5523		33.203125
5524		37.109375
5525		35.156250
5526		41.015625
5527		39.062500
5528		41.015625
5529		39.062500
5530		44.921875
5531		41.015625
5532		46.875000
5533		42.968750
5534		48.828125
5535		44.921875
5536		48.828125
5537		46.875000
5538		50.781250
5539		48.828125
5540		52.734375
5541		50.781250
5542		52.734375
5543		50.781250
5544		54.687500
5545		52.734375
5546		56.640625
5547		52.734375
5548		56.640625
5549		54.687500
5550		58.593750
5551		56.640625
5552		58.593750
5553		56.640625
5554		60.546875
5555		56.640625
5556		60.546875
5557		56.640625
5558		60.546875
5559		56.640625
5560		60.546875
5561		58.593750
5562		60.546875
5563		58.593750
5564		62.500000
5565		58.593750
5566		62.500000
5567		58.593750
5568		60.546875
5569		58.593750
5570		60.546875
5571		58.593750
5572		60.546875
5573		56.640625
5574		60.546875
5575		54.687500
5576		60.546875
5577		54.687500
5578		58.593750
5579		54.687500
5580		58.593750
5581		54.687500
5582		58.593750
5583		52.734375
5584		56.640625
5585		52.734375
5586		56.640625
5587		50.781250
5588		54.687500
5589		48.828125
5590		52.734375
5591		46.875000
5592		50.781250
5593		44.921875
5594		50.781250
5595		44.921875
5596		46.875000
5597		41.015625
5598		46.875000
5599		39.062500
5600		44.921875
5601		37.109375
5602		42.968750
5603		37.109375
5604		41.015625
5605		33.203125
5606		39.062500
5607		31.250000
5608		35.156250
5609		29.296875
5610		33.203125
5611		27.343750
5612		31.250000
5613		23.437500
5614		29.296875
5615		21.484375
5616		25.390625
5617		19.531250
5618		25.390625
5619		17.578125
5620		21.484375
5621		13.671875
5622		19.531250
5623		11.718750
5624		15.625000
5625		7.812500
5626		13.671875
5627		5.859375
5628		11.718750
5629		1.953125
5630		7.812500
5631		0.000000
5632		5.859375
5633		-1.953125
5634		1.953125
5635		-3.906250
5636		0.000000
5637		-7.812500
5638		-1.953125
5639		-9.765625
5640		-3.906250
5641		-11.718750
5642		-7.812500
5643		-15.625000
5644		-11.718750
5645		-17.578125
5646		-13.671875
5647		-19.531250
5648		-15.625000
5649		-23.437500
5650		-17.578125
5651		-25.390625
5652		-21.484375
5653		-27.343750
5654		-23.437500
5655		-29.296875
5656		-25.390625
5657		-31.250000
5658		-27.343750
5659		-35.156250
5660		-29.296875
5661		-35.156250
5662		-31.250000
5663		-37.109375
5664		-35.156250
5665		-39.062500
5666		-35.156250
5667		-41.015625
5668		-37.109375
5669		-42.968750
5670		-39.062500
5671		-44.921875
5672		-39.062500
5673		-44.921875
5674		-41.015625
5675		-44.921875
5676		-42.968750
5677		-46.875000
5678		-42.968750
5679		-48.828125
5680		-44.921875
5681		-48.828125
5682		-44.921875
5683		-50.781250
5684		-44.921875
5685		-50.781250
5686		-46.875000
5687		-50.781250
5688		-46.875000
5689		-50.781250
5690		-46.875000
5691		-48.828125
5692		-46.875000
5693		-50.781250
5694		-46.875000
5695		-50.781250
5696		-46.875000
5697		-48.828125
5698		-44.921875
5699		-48.828125
5700		-44.921875
5701		-48.828125
5702		-44.921875
5703		-46.875000
5704		-42.968750
5705		-46.875000
5706		-42.968750
5707		-44.921875
5708		-41.015625
5709		-42.968750
5710		-41.015625
5711		-42.968750
5712		-39.062500
5713		-41.015625
5714		-37.109375
5715		-39.062500
5716		-35.156250
5717		-37.109375
5718		-33.203125
5719		-35.156250
5720		-33.203125
5721		-35.156250
5722		-29.296875
5723		-33.203125
5724		-27.343750
5725		-29.296875
5726		-25.390625
5727		-27.343750
5728		-23.437500
5729		-25.390625
5730		-21.484375
5731		-23.437500
5732		-19.531250
5733		-21.484375
5734		-15.625000
5735		-17.578125
5736		-13.671875
5737		-15.625000
5738		-11.718750
5739		-13.671875
5740		-7.812500
5741		-11.718750
5742		-5.859375
5743		-7.812500
5744		-1.953125
5745		-5.859375
5746		0.000000
5747		-1.953125
5748		1.953125
5749		0.000000
5750		5.859375
5751		3.906250
5752		7.812500
5753		5.859375
5754		11.718750
5755		7.812500
5756		13.671875
5757		11.718750
5758		15.625000
5759		13.671875
5760		17.578125
5761		17.578125
5762		21.484375
5763		19.531250
5764		23.437500
5765		21.484375
5766		25.390625
5767		23.437500
5768		29.296875
5769		27.343750
5770		31.250000
5771		29.296875
5772		33.203125
5773		31.250000
5774		35.156250
5775		33.203125
5776		37.109375
5777		35.156250
5778		41.015625
5779		37.109375
5780		42.968750
5781		39.062500
5782		44.921875
5783		41.015625
5784		44.921875
5785		42.968750
5786		48.828125
5787		44.921875
5788		50.781250
5789		46.875000
5790		50.781250
5791		48.828125
5792		52.734375
5793		50.781250
5794		54.687500
5795		50.781250
5796		56.640625
5797		52.734375
5798		56.640625
5799		52.734375
5800		58.593750
5801		52.734375
5802		58.593750
5803		54.687500
5804		60.546875
5805		56.640625
5806		60.546875
5807		56.640625
5808		60.546875
5809		56.640625
5810		60.546875
5811		58.593750
5812		62.500000
5813		56.640625
5814		62.500000
5815		58.593750
5816		62.500000
5817		56.640625
5818		62.500000
5819		58.593750
5820		62.500000
5821		56.640625
5822		62.500000
5823		56.640625
5824		62.500000
5825		58.593750
5826		60.546875
5827		56.640625
5828		60.546875
5829		54.687500
5830		60.546875
5831		54.687500
5832		58.593750
5833		52.734375
5834		58.593750
5835		52.734375
5836		56.640625
5837		50.781250
5838		56.640625
5839		48.828125
5840		54.687500
5841		48.828125
5842		52.734375
5843		46.875000
5844		50.781250
5845		44.921875
5846		48.828125
5847		42.968750
5848		48.828125
5849		41.015625
5850		46.875000
5851		39.062500
5852		44.921875
5853		37.109375
5854		44.921875
5855		35.156250
5856		41.015625
5857		35.156250
5858		39.062500
5859		31.250000
5860		35.156250
5861		29.296875
5862		33.203125
5863		27.343750
5864		31.250000
5865		25.390625
5866		29.296875
5867		21.484375
5868		27.343750
5869		19.531250
5870		23.437500
5871		17.578125
5872		21.484375
5873		13.671875
5874		19.531250
5875		11.718750
5876		15.625000
5877		9.765625
5878		13.671875
5879		5.859375
5880		11.718750
5881		3.906250
5882		7.812500
5883		1.953125
5884		5.859375
5885		-1.953125
5886		1.953125
5887		-5.859375
5888		0.000000
5889		-7.812500
5890		-3.906250
5891		-9.765625
5892		-5.859375
5893		-11.718750
5894		-7.812500
5895		-15.625000
5896		-11.718750
5897		-17.578125
5898		-13.671875
5899		-19.531250
5900		-15.625000
5901		-23.437500
5902		-19.531250
5903		-25.390625
5904		-21.484375
5905		-27.343750
5906		-23.437500
5907		-29.296875
5908		-25.390625
5909		-31.250000
5910		-27.343750
5911		-33.203125
5912		-29.296875
5913		-35.156250
5914		-31.250000
5915		-37.109375
5916		-33.203125
5917		-39.062500
5918		-35.156250
5919		-41.015625
5920		-37.109375
5921		-42.968750
5922		-39.062500
5923		-42.968750
5924		-41.015625
5925		-44.921875
5926		-41.015625
5927		-44.921875
5928		-42.968750
5929		-46.875000
5930		-44.921875
5931		-46.875000
5932		-44.921875
5933		-48.828125
5934		-44.921875
5935		-48.828125
5936		-46.875000
5937		-48.828125
5938		-46.875000
5939		-48.828125
5940		-46.875000
5941		-50.781250
5942		-46.875000
5943		-50.781250
5944		-46.875000
5945		-48.828125
5946		-46.875000
5947		-48.828125
5948		-46.875000
5949		-48.828125
5950		-46.875000
5951		-48.828125
5952		-44.921875
5953		-46.875000
5954		-44.921875
5955		-46.875000
5956		-44.921875
5957		-46.875000
5958		-42.968750
5959		-44.921875
5960		-41.015625
5961		-42.968750
5962		-41.015625
5963		-44.921875
5964		-37.109375
5965		-44.921875
5966		-35.156250
5967		-42.968750
5968		-33.203125
5969		-37.109375
5970		-33.203125
5971		-35.156250
5972		-31.250000
5973		-33.203125
5974		-29.296875
5975		-31.250000
5976		-27.343750
5977		-29.296875
5978		-25.390625
5979		-29.296875
5980		-21.484375
5981		-27.343750
5982		-17.578125
5983		-25.390625
5984		-15.625000
5985		-21.484375
5986		-15.625000
5987		-17.578125
5988		-13.671875
5989		-15.625000
5990		-11.718750
5991		-13.671875
5992		-7.812500
5993		-9.765625
5994		-5.859375
5995		-7.812500
5996		-1.953125
5997		-7.812500
5998		1.953125
5999		-3.906250
6000		5.859375
6001		-1.953125
6002		7.812500
6003		3.906250
6004		7.812500
6005		5.859375
6006		9.765625
6007		9.765625
6008		13.671875
6009		11.718750
6010		15.625000
6011		13.671875
6012		19.531250
6013		13.671875
6014		23.437500
6015		17.578125
6016		27.343750
6017		19.531250
6018		29.296875
6019		25.390625
6020		29.296875
6021		27.343750
6022		31.250000
6023		29.296875
6024		33.203125
6025		31.250000
6026		35.156250
6027		33.203125
6028		37.109375
6029		35.156250
6030		42.968750
6031		35.156250
6032		44.921875
6033		37.109375
6034		46.875000
6035		39.062500
6036		48.828125
6037		44.921875
6038		46.875000
6039		46.875000
6040		48.828125
6041		46.875000
6042		50.781250
6043		48.828125
6044		52.734375
6045		50.781250
6046		54.687500
6047		48.828125
6048		58.593750
6049		50.781250
6050		58.593750
6051		50.781250
6052		60.546875
6053		54.687500
6054		58.593750
6055		56.640625
6056		58.593750
6057		56.640625
6058		58.593750
6059		58.593750
6060		60.546875
6061		58.593750
6062		60.546875
6063		54.687500
6064		64.453125
6065		56.640625
6066		64.453125
6067		56.640625
6068		64.453125
6069		56.640625
6070		64.453125
6071		58.593750
6072		60.546875
6073		58.593750
6074		60.546875
6075		58.593750
6076		60.546875
6077		56.640625
6078		60.546875
6079		56.640625
6080		60.546875
6081		52.734375
6082		62.500000
6083		52.734375
6084		62.500000
6085		50.781250
6086		60.546875
6087		52.734375
6088		56.640625
6089		52.734375
6090		54.687500
6091		50.781250
6092		52.734375
6093		48.828125
6094		52.734375
6095		48.828125
6096		50.781250
6097		42.968750
6098		52.734375
6099		41.015625
6100		50.781250
6101		39.062500
6102		48.828125
6103		41.015625
6104		44.921875
6105		39.062500
6106		42.968750
6107		37.109375
6108		41.015625
6109		33.203125
6110		37.109375
6111		31.250000
6112		37.109375
6113		27.343750
6114		35.156250
6115		25.390625
6116		35.156250
6117		21.484375
6118		33.203125
6119		21.484375
6120		29.296875
6121		19.531250
6122		23.437500
6123		17.578125
6124		21.484375
6125		15.625000
6126		19.531250
6127		11.718750
6128		15.625000
6129		9.765625
6130		13.671875
6131		3.906250
6132		13.671875
6133		0.000000
6134		11.718750
6135		-1.953125
6136		7.812500
6137		-1.953125
6138		1.953125
6139		-3.906250
6140		0.000000
6141		-7.812500
6142		-1.953125
6143		-9.765625
6144		-5.859375
6145		-11.718750
6146		-7.812500
6147		-15.625000
6148		-11.718750
6149		-17.578125
6150		-13.671875
6151		-21.484375
6152		-13.671875
6153		-23.437500
6154		-19.531250
6155		-25.390625
6156		-19.531250
6157		-27.343750
6158		-23.437500
6159		-29.296875
6160		-25.390625
6161		-31.250000
6162		-27.343750
6163		-33.203125
6164		-29.296875
6165		-35.156250
6166		-31.250000
6167		-39.062500
6168		-31.250000
6169		-41.015625
6170		-31.250000
6171		-41.015625
6172		-37.109375
6173		-42.968750
6174		-39.062500
6175		-42.968750
6176		-41.015625
6177		-44.921875
6178		-41.015625
6179		-44.921875
6180		-42.968750
6181		-46.875000
6182		-44.921875
6183		-50.781250
6184		-42.968750
6185		-50.781250
6186		-44.921875
6187		-48.828125
6188		-46.875000
6189		-48.828125
6190		-46.875000
6191		-48.828125
6192		-46.875000
6193		-48.828125
6194		-46.875000
6195		-48.828125
6196		-46.875000
6197		-48.828125
6198		-46.875000
6199		-50.781250
6200		-46.875000
6201		-48.828125
6202		-46.875000
6203		-48.828125
6204		-44.921875
6205		-46.875000
6206		-44.921875
6207		-46.875000
6208		-44.921875
6209		-46.875000
6210		-42.968750
6211		-44.921875
6212		-41.015625
6213		-42.968750
6214		-41.015625
6215		-42.968750
6216		-39.062500
6217		-41.015625
6218		-37.109375
6219		-39.062500
6220		-35.156250
6221		-39.062500
6222		-33.203125
6223		-35.156250
6224		-31.250000
6225		-35.156250
6226		-29.296875
6227		-31.250000
6228		-27.343750
6229		-29.296875
6230		-25.390625
6231		-27.343750
6232		-23.437500
6233		-25.390625
6234		-21.484375
6235		-23.437500
6236		-19.531250
6237		-19.531250
6238		-15.625000
6239		-17.578125
6240		-13.671875
6241		-15.625000
6242		-9.765625
6243		-13.671875
6244		-7.812500
6245		-9.765625
6246		-5.859375
6247		-7.812500
6248		-1.953125
6249		-5.859375
6250		0.000000
6251		-3.906250
6252		1.953125
6253		0.000000
6254		3.906250
6255		3.906250
6256		7.812500
6257		5.859375
6258		9.765625
6259		9.765625
6260		13.671875
6261		11.718750
6262		15.625000
6263		13.671875
6264		19.531250
6265		15.625000
6266		21.484375
6267		19.531250
6268		23.437500
6269		21.484375
6270		25.390625
6271		25.390625
6272		29.296875
6273		25.390625
6274		31.250000
6275		29.296875
6276		33.203125
6277		31.250000
6278		35.156250
6279		33.203125
6280		37.109375
6281		37.109375
6282		41.015625
6283		37.109375
6284		42.968750
6285		41.015625
6286		44.921875
6287		42.968750
6288		44.921875
6289		42.968750
6290		48.828125
6291		44.921875
6292		48.828125
6293		46.875000
6294		50.781250
6295		48.828125
6296		52.734375
6297		50.781250
6298		52.734375
6299		50.781250
6300		56.640625
6301		52.734375
6302		56.640625
6303		54.687500
6304		56.640625
6305		54.687500
6306		58.593750
6307		54.687500
6308		58.593750
6309		56.640625
6310		60.546875
6311		56.640625
6312		60.546875
6313		58.593750
6314		60.546875
6315		56.640625
6316		62.500000
6317		58.593750
6318		62.500000
6319		58.593750
6320		60.546875
6321		58.593750
6322		62.500000
6323		58.593750
6324		62.500000
6325		58.593750
6326		60.546875
6327		58.593750
6328		60.546875
6329		56.640625
6330		60.546875
6331		56.640625
6332		60.546875
6333		56.640625
6334		60.546875
6335		54.687500
6336		58.593750
6337		54.687500
6338		56.640625
6339		52.734375
6340		56.640625
6341		52.734375
6342		56.640625
6343		50.781250
6344		54.687500
6345		48.828125
6346		52.734375
6347		46.875000
6348		50.781250
6349		44.921875
6350		50.781250
6351		44.921875
6352		48.828125
6353		42.968750
6354		46.875000
6355		41.015625
6356		44.921875
6357		39.062500
6358		42.968750
6359		37.109375
6360		41.015625
6361		35.156250
6362		39.062500
6363		33.203125
6364		37.109375
6365		27.343750
6366		33.203125
6367		27.343750
6368		33.203125
6369		25.390625
6370		29.296875
6371		21.484375
6372		27.343750
6373		19.531250
6374		25.390625
6375		17.578125
6376		23.437500
6377		13.671875
6378		19.531250
6379		11.718750
6380		15.625000
6381		9.765625
6382		13.671875
6383		5.859375
6384		11.718750
6385		3.906250
6386		9.765625
6387		1.953125
6388		5.859375
6389		-1.953125
6390		1.953125
6391		-3.906250
6392		0.000000
6393		-5.859375
6394		-1.953125
6395		-9.765625
6396		-5.859375
6397		-11.718750
6398		-7.812500
6399		-15.625000
6400		-9.765625
6401		-17.578125
6402		-11.718750
6403		-19.531250
6404		-15.625000
6405		-23.437500
6406		-17.578125
6407		-25.390625
6408		-19.531250
6409		-27.343750
6410		-23.437500
6411		-29.296875
6412		-25.390625
6413		-31.250000
6414		-27.343750
6415		-33.203125
6416		-29.296875
6417		-35.156250
6418		-29.296875
6419		-37.109375
6420		-33.203125
6421		-39.062500
6422		-35.156250
6423		-41.015625
6424		-37.109375
6425		-41.015625
6426		-39.062500
6427		-42.968750
6428		-41.015625
6429		-44.921875
6430		-41.015625
6431		-44.921875
6432		-42.968750
6433		-46.875000
6434		-42.968750
6435		-46.875000
6436		-44.921875
6437		-48.828125
6438		-44.921875
6439		-48.828125
6440		-44.921875
6441		-48.828125
6442		-46.875000
6443		-48.828125
6444		-46.875000
6445		-48.828125
6446		-46.875000
6447		-48.828125
6448		-46.875000
6449		-48.828125
6450		-46.875000
6451		-48.828125
6452		-46.875000
6453		-48.828125
6454		-46.875000
6455		-48.828125
6456		-44.921875
6457		-48.828125
6458		-44.921875
6459		-46.875000
6460		-42.968750
6461		-46.875000
6462		-42.968750
6463		-44.921875
6464		-41.015625
6465		-42.968750
6466		-41.015625
6467		-42.968750
6468		-39.062500
6469		-41.015625
6470		-37.109375
6471		-39.062500
6472		-35.156250
6473		-37.109375
6474		-33.203125
6475		-35.156250
6476		-31.250000
6477		-33.203125
6478		-29.296875
6479		-31.250000
6480		-27.343750
6481		-29.296875
6482		-25.390625
6483		-27.343750
6484		-23.437500
6485		-25.390625
6486		-21.484375
6487		-23.437500
6488		-17.578125
6489		-19.531250
6490		-15.625000
6491		-17.578125
6492		-13.671875
6493		-15.625000
6494		-11.718750
6495		-11.718750
6496		-7.812500
6497		-9.765625
6498		-5.859375
6499		-7.812500
6500		-1.953125
6501		-3.906250
6502		0.000000
6503		-1.953125
6504		1.953125
6505		1.953125
6506		5.859375
6507		3.906250
6508		7.812500
6509		5.859375
6510		9.765625
6511		9.765625
6512		13.671875
6513		11.718750
6514		15.625000
6515		13.671875
6516		19.531250
6517		17.578125
6518		21.484375
6519		19.531250
6520		23.437500
6521		23.437500
6522		27.343750
6523		25.390625
6524		29.296875
6525		27.343750
6526		31.250000
6527		29.296875
6528		33.203125
6529		31.250000
6530		35.156250
6531		35.156250
6532		39.062500
6533		37.109375
6534		39.062500
6535		39.062500
6536		42.968750
6537		41.015625
6538		44.921875
6539		42.968750
6540		46.875000
6541		44.921875
6542		46.875000
6543		46.875000
6544		48.828125
6545		46.875000
6546		50.781250
6547		48.828125
6548		52.734375
6549		50.781250
6550		54.687500
6551		50.781250
6552		54.687500
6553		52.734375
6554		56.640625
6555		54.687500
6556		56.640625
6557		54.687500
6558		58.593750
6559		56.640625
6560		58.593750
6561		56.640625
6562		60.546875
6563		58.593750
6564		60.546875
6565		58.593750
6566		60.546875
6567		58.593750
6568		62.500000
6569		58.593750
6570		62.500000
6571		60.546875
6572		62.500000
6573		58.593750
6574		62.500000
6575		58.593750
6576		60.546875
6577		58.593750
6578		60.546875
6579		58.593750
6580		60.546875
6581		58.593750
6582		60.546875
6583		58.593750
6584		60.546875
6585		56.640625
6586		60.546875
6587		54.687500
6588		60.546875
6589		54.687500
6590		56.640625
6591		54.687500
6592		56.640625
6593		52.734375
6594		54.687500
6595		50.781250
6596		54.687500
6597		50.781250
6598		52.734375
6599		48.828125
6600		50.781250
6601		44.921875
6602		50.781250
6603		44.921875
6604		48.828125
6605		42.968750
6606		46.875000
6607		41.015625
6608		44.921875
6609		39.062500
6610		42.968750
6611		37.109375
6612		41.015625
6613		35.156250
6614		39.062500
6615		33.203125
6616		37.109375
6617		29.296875
6618		35.156250
6619		27.343750
6620		33.203125
6621		25.390625
6622		31.250000
6623		23.437500
6624		27.343750
6625		21.484375
6626		25.390625
6627		17.578125
6628		21.484375
6629		15.625000
6630		19.531250
6631		11.718750
6632		15.625000
6633		9.765625
6634		13.671875
6635		5.859375
6636		11.718750
6637		3.906250
6638		9.765625
6639		1.953125
6640		5.859375
6641		-1.953125
6642		3.906250
6643		-3.906250
6644		0.000000
6645		-5.859375
6646		-1.953125
6647		-9.765625
6648		-3.906250
6649		-11.718750
6650		-7.812500
6651		-15.625000
6652		-9.765625
6653		-19.531250
6654		-11.718750
6655		-19.531250
6656		-15.625000
6657		-21.484375
6658		-17.578125
6659		-23.437500
6660		-19.531250
6661		-25.390625
6662		-23.437500
6663		-29.296875
6664		-25.390625
6665		-31.250000
6666		-27.343750
6667		-33.203125
6668		-29.296875
6669		-35.156250
6670		-29.296875
6671		-37.109375
6672		-31.250000
6673		-37.109375
6674		-35.156250
6675		-41.015625
6676		-37.109375
6677		-41.015625
6678		-39.062500
6679		-42.968750
6680		-39.062500
6681		-42.968750
6682		-41.015625
6683		-44.921875
6684		-41.015625
6685		-46.875000
6686		-41.015625
6687		-48.828125
6688		-42.968750
6689		-46.875000
6690		-44.921875
6691		-46.875000
6692		-44.921875
6693		-48.828125
6694		-46.875000
6695		-48.828125
6696		-46.875000
6697		-48.828125
6698		-46.875000
6699		-48.828125
6700		-46.875000
6701		-50.781250
6702		-44.921875
6703		-50.781250
6704		-44.921875
6705		-50.781250
6706		-44.921875
6707		-46.875000
6708		-44.921875
6709		-46.875000
6710		-44.921875
6711		-46.875000
6712		-42.968750
6713		-44.921875
6714		-42.968750
6715		-42.968750
6716		-41.015625
6717		-42.968750
6718		-41.015625
6719		-42.968750
6720		-37.109375
6721		-41.015625
6722		-35.156250
6723		-39.062500
6724		-35.156250
6725		-37.109375
6726		-33.203125
6727		-35.156250
6728		-31.250000
6729		-33.203125
6730		-29.296875
6731		-31.250000
6732		-27.343750
6733		-29.296875
6734		-25.390625
6735		-27.343750
6736		-21.484375
6737		-25.390625
6738		-19.531250
6739		-21.484375
6740		-17.578125
6741		-19.531250
6742		-15.625000
6743		-17.578125
6744		-13.671875
6745		-13.671875
6746		-9.765625
6747		-11.718750
6748		-7.812500
6749		-9.765625
6750		-5.859375
6751		-7.812500
6752		-1.953125
6753		-5.859375
6754		1.953125
6755		-1.953125
6756		3.906250
6757		1.953125
6758		5.859375
6759		3.906250
6760		7.812500
6761		5.859375
6762		11.718750
6763		9.765625
6764		13.671875
6765		11.718750
6766		15.625000
6767		15.625000
6768		19.531250
6769		17.578125
6770		21.484375
6771		19.531250
6772		25.390625
6773		23.437500
6774		27.343750
6775		25.390625
6776		29.296875
6777		27.343750
6778		31.250000
6779		29.296875
6780		33.203125
6781		33.203125
6782		35.156250
6783		33.203125
6784		39.062500
6785		37.109375
6786		41.015625
6787		37.109375
6788		42.968750
6789		41.015625
6790		44.921875
6791		42.968750
6792		46.875000
6793		44.921875
6794		48.828125
6795		46.875000
6796		50.781250
6797		48.828125
6798		50.781250
6799		50.781250
6800		52.734375
6801		50.781250
6802		54.687500
6803		50.781250
6804		56.640625
6805		54.687500
6806		56.640625
6807		54.687500
6808		58.593750
6809		56.640625
6810		58.593750
6811		56.640625
6812		58.593750
6813		58.593750
6814		60.546875
6815		58.593750
6816		60.546875
6817		58.593750
6818		60.546875
6819		58.593750
6820		62.500000
6821		58.593750
6822		62.500000
6823		58.593750
6824		62.500000
6825		58.593750
6826		62.500000
6827		58.593750
6828		62.500000
6829		60.546875
6830		62.500000
6831		58.593750
6832		60.546875
6833		58.593750
6834		60.546875
6835		56.640625
6836		60.546875
6837		56.640625
6838		60.546875
6839		56.640625
6840		58.593750
6841		54.687500
6842		58.593750
6843		54.687500
6844		56.640625
6845		52.734375
6846		56.640625
6847		52.734375
6848		54.687500
6849		50.781250
6850		52.734375
6851		48.828125
6852		52.734375
6853		46.875000
6854		50.781250
6855		44.921875
6856		48.828125
6857		42.968750
6858		46.875000
6859		41.015625
6860		44.921875
6861		39.062500
6862		42.968750
6863		37.109375
6864		41.015625
6865		35.156250
6866		39.062500
6867		33.203125
6868		37.109375
6869		31.250000
6870		35.156250
6871		27.343750
6872		31.250000
6873		25.390625
6874		29.296875
6875		23.437500
6876		27.343750
6877		21.484375
6878		25.390625
6879		17.578125
6880		23.437500
6881		15.625000
6882		19.531250
6883		13.671875
6884		17.578125
6885		9.765625
6886		13.671875
6887		7.812500
6888		11.718750
6889		5.859375
6890		9.765625
6891		1.953125
6892		5.859375
6893		0.000000
6894		3.906250
6895		-3.906250
6896		0.000000
6897		-5.859375
6898		-1.953125
6899		-7.812500
6900		-3.906250
6901		-11.718750
6902		-7.812500
6903		-13.671875
6904		-9.765625
6905		-15.625000
6906		-11.718750
6907		-19.531250
6908		-15.625000
6909		-21.484375
6910		-17.578125
6911		-23.437500
6912		-19.531250
6913		-25.390625
6914		-21.484375
6915		-27.343750
6916		-25.390625
6917		-31.250000
6918		-27.343750
6919		-33.203125
6920		-29.296875
6921		-35.156250
6922		-31.250000
6923		-35.156250
6924		-33.203125
6925		-37.109375
6926		-35.156250
6927		-39.062500
6928		-37.109375
6929		-41.015625
6930		-37.109375
6931		-42.968750
6932		-39.062500
6933		-42.968750
6934		-41.015625
6935		-44.921875
6936		-41.015625
6937		-44.921875
6938		-42.968750
6939		-46.875000
6940		-44.921875
6941		-46.875000
6942		-44.921875
6943		-46.875000
6944		-44.921875
6945		-48.828125
6946		-46.875000
6947		-48.828125
6948		-46.875000
6949		-48.828125
6950		-46.875000
6951		-48.828125
6952		-46.875000
6953		-48.828125
6954		-44.921875
6955		-48.828125
6956		-44.921875
6957		-48.828125
6958		-44.921875
6959		-46.875000
6960		-44.921875
6961		-46.875000
6962		-44.921875
6963		-46.875000
6964		-42.968750
6965		-44.921875
6966		-42.968750
6967		-42.968750
6968		-41.015625
6969		-42.968750
6970		-39.062500
6971		-41.015625
6972		-39.062500
6973		-41.015625
6974		-37.109375
6975		-39.062500
6976		-35.156250
6977		-37.109375
6978		-33.203125
6979		-35.156250
6980		-31.250000
6981		-33.203125
6982		-29.296875
6983		-31.250000
6984		-27.343750
6985		-29.296875
6986		-25.390625
6987		-27.343750
6988		-23.437500
6989		-23.437500
6990		-21.484375
6991		-21.484375
6992		-17.578125
6993		-19.531250
6994		-15.625000
6995		-17.578125
6996		-13.671875
6997		-13.671875
6998		-9.765625
6999		-11.718750
7000		-7.812500
7001		-9.765625
7002		-5.859375
7003		-5.859375
7004		-1.953125
7005		-3.906250
7006		0.000000
7007		-1.953125
7008		1.953125
7009		1.953125
7010		5.859375
7011		3.906250
7012		7.812500
7013		5.859375
7014		11.718750
7015		9.765625
7016		13.671875
7017		11.718750
7018		15.625000
7019		15.625000
7020		19.531250
7021		17.578125
7022		21.484375
7023		19.531250
7024		23.437500
7025		23.437500
7026		27.343750
7027		25.390625
7028		29.296875
7029		27.343750
7030		31.250000
7031		29.296875
7032		33.203125
7033		33.203125
7034		35.156250
7035		35.156250
7036		39.062500
7037		37.109375
7038		41.015625
7039		39.062500
7040		42.968750
7041		41.015625
7042		44.921875
7043		42.968750
7044		46.875000
7045		44.921875
7046		48.828125
7047		46.875000
7048		48.828125
7049		48.828125
7050		50.781250
7051		48.828125
7052		52.734375
7053		50.781250
7054		54.687500
7055		52.734375
7056		54.687500
7057		54.687500
7058		56.640625
7059		54.687500
7060		58.593750
7061		56.640625
7062		58.593750
7063		56.640625
7064		58.593750
7065		56.640625
7066		60.546875
7067		58.593750
7068		60.546875
7069		58.593750
7070		60.546875
7071		58.593750
7072		60.546875
7073		58.593750
7074		62.500000
7075		60.546875
7076		62.500000
7077		60.546875
7078		62.500000
7079		58.593750
7080		62.500000
7081		58.593750
7082		62.500000
7083		58.593750
7084		60.546875
7085		58.593750
7086		60.546875
7087		58.593750
7088		60.546875
7089		56.640625
7090		58.593750
7091		56.640625
7092		58.593750
7093		54.687500
7094		58.593750
7095		54.687500
7096		56.640625
7097		52.734375
7098		56.640625
7099		50.781250
7100		54.687500
7101		50.781250
7102		52.734375
7103		48.828125
7104		52.734375
7105		46.875000
7106		50.781250
7107		44.921875
7108		48.828125
7109		42.968750
7110		46.875000
7111		41.015625
7112		44.921875
7113		39.062500
7114		42.968750
7115		37.109375
7116		41.015625
7117		35.156250
7118		39.062500
7119		33.203125
7120		37.109375
7121		31.250000
7122		35.156250
7123		27.343750
7124		31.250000
7125		25.390625
7126		29.296875
7127		23.437500
7128		27.343750
7129		19.531250
7130		25.390625
7131		17.578125
7132		21.484375
7133		15.625000
7134		19.531250
7135		13.671875
7136		17.578125
7137		9.765625
7138		13.671875
7139		7.812500
7140		11.718750
7141		3.906250
7142		7.812500
7143		1.953125
7144		5.859375
7145		-1.953125
7146		3.906250
7147		-3.906250
7148		0.000000
7149		-5.859375
7150		-1.953125
7151		-9.765625
7152		-3.906250
7153		-11.718750
7154		-7.812500
7155		-13.671875
7156		-9.765625
7157		-15.625000
7158		-11.718750
7159		-19.531250
7160		-15.625000
7161		-21.484375
7162		-17.578125
7163		-23.437500
7164		-19.531250
7165		-25.390625
7166		-21.484375
7167		-29.296875
7168		-25.390625
7169		-31.250000
7170		-27.343750
7171		-33.203125
7172		-29.296875
7173		-35.156250
7174		-31.250000
7175		-37.109375
7176		-33.203125
7177		-37.109375
7178		-35.156250
7179		-39.062500
7180		-37.109375
7181		-41.015625
7182		-39.062500
7183		-42.968750
7184		-39.062500
7185		-42.968750
7186		-41.015625
7187		-44.921875
7188		-42.968750
7189		-44.921875
7190		-42.968750
7191		-46.875000
7192		-44.921875
7193		-46.875000
7194		-44.921875
7195		-48.828125
7196		-44.921875
7197		-48.828125
7198		-46.875000
7199		-48.828125
7200		-46.875000
7201		-48.828125
7202		-46.875000
7203		-48.828125
7204		-46.875000
7205		-48.828125
7206		-46.875000
7207		-48.828125
7208		-46.875000
7209		-48.828125
7210		-44.921875
7211		-46.875000
7212		-44.921875
7213		-46.875000
7214		-44.921875
7215		-46.875000
7216		-42.968750
7217		-44.921875
7218		-42.968750
7219		-42.968750
7220		-41.015625
7221		-42.968750
7222		-39.062500
7223		-41.015625
7224		-39.062500
7225		-39.062500
7226		-37.109375
7227		-39.062500
7228		-35.156250
7229		-37.109375
7230		-33.203125
7231		-35.156250
7232		-31.250000
7233		-33.203125
7234		-29.296875
7235		-31.250000
7236		-27.343750
7237		-29.296875
7238		-25.390625
7239		-27.343750
7240		-23.437500
7241		-25.390625
7242		-21.484375
7243		-21.484375
7244		-17.578125
7245		-19.531250
7246		-15.625000
7247		-17.578125
7248		-13.671875
7249		-15.625000
7250		-11.718750
7251		-11.718750
7252		-7.812500
7253		-9.765625
7254		-5.859375
7255		-5.859375
7256		-1.953125
7257		-3.906250
7258		0.000000
7259		-1.953125
7260		1.953125
7261		1.953125
7262		5.859375
7263		3.906250
7264		7.812500
7265		7.812500
7266		11.718750
7267		9.765625
7268		13.671875
7269		11.718750
7270		15.625000
7271		15.625000
7272		19.531250
7273		17.578125
7274		21.484375
7275		19.531250
7276		23.437500
7277		23.437500
7278		27.343750
7279		25.390625
7280		29.296875
7281		27.343750
7282		31.250000
7283		29.296875
7284		33.203125
7285		33.203125
7286		35.156250
7287		35.156250
7288		39.062500
7289		37.109375
7290		41.015625
7291		39.062500
7292		42.968750
7293		41.015625
7294		44.921875
7295		42.968750
7296		46.875000
7297		44.921875
7298		48.828125
7299		46.875000
7300		50.781250
7301		48.828125
7302		50.781250
7303		48.828125
7304		52.734375
7305		50.781250
7306		54.687500
7307		52.734375
7308		54.687500
7309		54.687500
7310		56.640625
7311		54.687500
7312		58.593750
7313		56.640625
7314		58.593750
7315		56.640625
7316		58.593750
7317		56.640625
7318		60.546875
7319		58.593750
7320		60.546875
7321		58.593750
7322		60.546875
7323		58.593750
7324		60.546875
7325		58.593750
7326		62.500000
7327		60.546875
7328		62.500000
7329		60.546875
7330		62.500000
7331		58.593750
7332		62.500000
7333		58.593750
7334		60.546875
7335		58.593750
7336		60.546875
7337		58.593750
7338		60.546875
7339		58.593750
7340		60.546875
7341		56.640625
7342		58.593750
7343		56.640625
7344		58.593750
7345		54.687500
7346		58.593750
7347		54.687500
7348		56.640625
7349		52.734375
7350		56.640625
7351		50.781250
7352		54.687500
7353		50.781250
7354		52.734375
7355		48.828125
7356		52.734375
7357		46.875000
7358		50.781250
7359		44.921875
7360		48.828125
7361		42.968750
7362		46.875000
7363		41.015625
7364		44.921875
7365		39.062500
7366		42.968750
7367		37.109375
7368		41.015625
7369		35.156250
7370		39.062500
7371		33.203125
7372		37.109375
7373		31.250000
7374		35.156250
7375		27.343750
7376		33.203125
7377		25.390625
7378		29.296875
7379		23.437500
7380		27.343750
7381		21.484375
7382		25.390625
7383		17.578125
7384		23.437500
7385		15.625000
7386		19.531250
7387		13.671875
7388		17.578125
7389		9.765625
7390		13.671875
7391		7.812500
7392		11.718750
7393		3.906250
7394		9.765625
7395		1.953125
7396		5.859375
7397		-1.953125
7398		3.906250
7399		-3.906250
7400		1.953125
7401		-5.859375
7402		-1.953125
7403		-7.812500
7404		-3.906250
7405		-11.718750
7406		-7.812500
7407		-13.671875
7408		-9.765625
7409		-15.625000
7410		-11.718750
7411		-19.531250
7412		-13.671875
7413		-21.484375
7414		-17.578125
7415		-23.437500
7416		-19.531250
7417		-25.390625
7418		-21.484375
7419		-29.296875
7420		-25.390625
7421		-31.250000
7422		-25.390625
7423		-33.203125
7424		-29.296875
7425		-35.156250
7426		-31.250000
7427		-37.109375
7428		-33.203125
7429		-37.109375
7430		-35.156250
7431		-39.062500
7432		-37.109375
7433		-41.015625
7434		-37.109375
7435		-42.968750
7436		-39.062500
7437		-42.968750
7438		-41.015625
7439		-44.921875
7440		-42.968750
7441		-44.921875
7442		-42.968750
7443		-46.875000
7444		-42.968750
7445		-46.875000
7446		-44.921875
7447		-46.875000
7448		-44.921875
7449		-48.828125
7450		-46.875000
7451		-48.828125
7452		-46.875000
7453		-50.781250
7454		-44.921875
7455		-48.828125
7456		-46.875000
7457		-48.828125
7458		-46.875000
7459		-48.828125
7460		-46.875000
7461		-48.828125
7462		-44.921875
7463		-46.875000
7464		-44.921875
7465		-46.875000
7466		-44.921875
7467		-46.875000
7468		-42.968750
7469		-44.921875
7470		-42.968750
7471		-42.968750
7472		-41.015625
7473		-42.968750
7474		-41.015625
7475		-41.015625
7476		-39.062500
7477		-41.015625
7478		-37.109375
7479		-39.062500
7480		-35.156250
7481		-37.109375
7482		-33.203125
7483		-35.156250
7484		-31.250000
7485		-33.203125
7486		-29.296875
7487		-31.250000
7488		-27.343750
7489		-29.296875
7490		-25.390625
7491		-27.343750
7492		-23.437500
7493		-25.390625
7494		-21.484375
7495		-21.484375
7496		-17.578125
7497		-19.531250
7498		-15.625000
7499		-17.578125
7500		-13.671875
7501		-15.625000
7502		-9.765625
7503		-11.718750
7504		-7.812500
7505		-9.765625
7506		-5.859375
7507		-7.812500
7508		-1.953125
7509		-3.906250
7510		0.000000
7511		-1.953125
7512		1.953125
7513		1.953125
7514		5.859375
7515		3.906250
7516		7.812500
7517		5.859375
7518		11.718750
7519		9.765625
7520		13.671875
7521		11.718750
7522		15.625000
7523		15.625000
7524		19.531250
7525		17.578125
7526		21.484375
7527		19.531250
7528		23.437500
7529		23.437500
7530		27.343750
7531		25.390625
7532		29.296875
7533		27.343750
7534		31.250000
7535		29.296875
7536		33.203125
7537		33.203125
7538		35.156250
7539		35.156250
7540		39.062500
7541		37.109375
7542		41.015625
7543		39.062500
7544		42.968750
7545		41.015625
7546		44.921875
7547		42.968750
7548		46.875000
7549		44.921875
7550		48.828125
7551		46.875000
7552		50.781250
7553		48.828125
7554		50.781250
7555		48.828125
7556		52.734375
7557		50.781250
7558		54.687500
7559		52.734375
7560		54.687500
7561		54.687500
7562		56.640625
7563		54.687500
7564		58.593750
7565		54.687500
7566		58.593750
7567		56.640625
7568		58.593750
7569		56.640625
7570		60.546875
7571		58.593750
7572		60.546875
7573		58.593750
7574		60.546875
7575		58.593750
7576		62.500000
7577		58.593750
7578		62.500000
7579		60.546875
7580		62.500000
7581		60.546875
7582		62.500000
7583		60.546875
7584		62.500000
7585		58.593750
7586		62.500000
7587		58.593750
7588		60.546875
7589		58.593750
7590		60.546875
7591		58.593750
7592		60.546875
7593		56.640625
7594		60.546875
7595		56.640625
7596		58.593750
7597		54.687500
7598		58.593750
7599		54.687500
7600		56.640625
7601		52.734375
7602		56.640625
7603		50.781250
7604		54.687500
7605		50.781250
7606		54.687500
7607		48.828125
7608		52.734375
7609		44.921875
7610		50.781250
7611		44.921875
7612		48.828125
7613		42.968750
7614		48.828125
7615		41.015625
7616		46.875000
7617		39.062500
7618		42.968750
7619		37.109375
7620		42.968750
7621		35.156250
7622		39.062500
7623		33.203125
7624		37.109375
7625		31.250000
7626		35.156250
7627		29.296875
7628		31.250000
7629		25.390625
7630		29.296875
7631		23.437500
7632		29.296875
7633		21.484375
7634		25.390625
7635		17.578125
7636		23.437500
7637		15.625000
7638		19.531250
7639		11.718750
7640		19.531250
7641		9.765625
7642		15.625000
7643		5.859375
7644		11.718750
7645		5.859375
7646		9.765625
7647		1.953125
7648		5.859375
7649		0.000000
7650		3.906250
7651		-3.906250
7652		1.953125
7653		-5.859375
7654		-1.953125
7655		-9.765625
7656		-1.953125
7657		-11.718750
7658		-7.812500
7659		-13.671875
7660		-9.765625
7661		-17.578125
7662		-11.718750
7663		-21.484375
7664		-15.625000
7665		-21.484375
7666		-15.625000
7667		-23.437500
7668		-19.531250
7669		-27.343750
7670		-21.484375
7671		-31.250000
7672		-25.390625
7673		-31.250000
7674		-27.343750
7675		-33.203125
7676		-29.296875
7677		-35.156250
7678		-31.250000
7679		-39.062500
7680		-31.250000
7681		-39.062500
7682		-33.203125
7683		-39.062500
7684		-37.109375
7685		-42.968750
7686		-37.109375
7687		-42.968750
7688		-39.062500
7689		-46.875000
7690		-39.062500
7691		-44.921875
7692		-42.968750
7693		-44.921875
7694		-42.968750
7695		-48.828125
7696		-42.968750
7697		-48.828125
7698		-42.968750
7699		-48.828125
7700		-42.968750
7701		-48.828125
7702		-44.921875
7703		-52.734375
7704		-42.968750
7705		-50.781250
7706		-42.968750
7707		-48.828125
7708		-46.875000
7709		-48.828125
7710		-46.875000
7711		-48.828125
7712		-44.921875
7713		-48.828125
7714		-42.968750
7715		-48.828125
7716		-42.968750
7717		-46.875000
7718		-42.968750
7719		-48.828125
7720		-41.015625
7721		-44.921875
7722		-41.015625
7723		-46.875000
7724		-39.062500
7725		-42.968750
7726		-39.062500
7727		-41.015625
7728		-37.109375
7729		-42.968750
7730		-33.203125
7731		-39.062500
7732		-35.156250
7733		-37.109375
7734		-33.203125
7735		-35.156250
7736		-29.296875
7737		-35.156250
7738		-27.343750
7739		-35.156250
7740		-25.390625
7741		-29.296875
7742		-25.390625
7743		-27.343750
7744		-23.437500
7745		-25.390625
7746		-19.531250
7747		-25.390625
7748		-15.625000
7749		-21.484375
7750		-15.625000
7751		-17.578125
7752		-13.671875
7753		-17.578125
7754		-7.812500
7755		-13.671875
7756		-5.859375
7757		-13.671875
7758		-3.906250
7759		-5.859375
7760		-1.953125
7761		-3.906250
7762		0.000000
7763		-3.906250
7764		5.859375
7765		0.000000
7766		5.859375
7767		3.906250
7768		7.812500
7769		5.859375
7770		13.671875
7771		5.859375
7772		15.625000
7773		9.765625
7774		17.578125
7775		15.625000
7776		19.531250
7777		17.578125
7778		21.484375
7779		19.531250
7780		25.390625
7781		19.531250
7782		29.296875
7783		25.390625
7784		29.296875
7785		27.343750
7786		31.250000
7787		27.343750
7788		37.109375
7789		29.296875
7790		39.062500
7791		35.156250
7792		39.062500
7793		37.109375
7794		41.015625
7795		39.062500
7796		42.968750
7797		39.062500
7798		46.875000
7799		41.015625
7800		46.875000
7801		44.921875
7802		48.828125
7803		44.921875
7804		52.734375
7805		44.921875
7806		54.687500
7807		48.828125
7808		54.687500
7809		50.781250
7810		54.687500
7811		52.734375
7812		56.640625
7813		50.781250
7814		58.593750
7815		52.734375
7816		58.593750
7817		56.640625
7818		58.593750
7819		54.687500
7820		62.500000
7821		54.687500
7822		62.500000
7823		54.687500
7824		62.500000
7825		58.593750
7826		60.546875
7827		58.593750
7828		60.546875
7829		58.593750
7830		62.500000
7831		56.640625
7832		64.453125
7833		56.640625
7834		64.453125
7835		58.593750
7836		62.500000
7837		56.640625
7838		66.406250
7839		58.593750
7840		60.546875
7841		56.640625
7842		64.453125
7843		58.593750
7844		60.546875
7845		56.640625
7846		60.546875
7847		52.734375
7848		62.500000
7849		52.734375
7850		58.593750
7851		54.687500
7852		56.640625
7853		50.781250
7854		58.593750
7855		48.828125
7856		58.593750
7857		48.828125
7858		56.640625
7859		48.828125
7860		52.734375
7861		46.875000
7862		50.781250
7863		44.921875
7864		50.781250
7865		41.015625
7866		48.828125
7867		41.015625
7868		44.921875
7869		37.109375
7870		42.968750
7871		35.156250
7872		44.921875
7873		33.203125
7874		39.062500
7875		33.203125
7876		37.109375
7877		31.250000
7878		35.156250
7879		27.343750
7880		31.250000
7881		23.437500
7882		31.250000
7883		21.484375
7884		29.296875
7885		21.484375
7886		25.390625
7887		15.625000
7888		23.437500
7889		15.625000
7890		19.531250
7891		11.718750
7892		19.531250
7893		9.765625
7894		13.671875
7895		7.812500
7896		11.718750
7897		1.953125
7898		9.765625
7899		0.000000
7900		7.812500
7901		0.000000
7902		3.906250
7903		-5.859375
7904		1.953125
7905		-5.859375
7906		0.000000
7907		-9.765625
7908		-3.906250
7909		-11.718750
7910		-7.812500
7911		-13.671875
7912		-9.765625
7913		-15.625000
7914		-11.718750
7915		-19.531250
7916		-15.625000
7917		-21.484375
7918		-15.625000
7919		-23.437500
7920		-19.531250
7921		-27.343750
7922		-21.484375
7923		-27.343750
7924		-25.390625
7925		-31.250000
7926		-27.343750
7927		-33.203125
7928		-29.296875
7929		-35.156250
7930		-31.250000
7931		-37.109375
7932		-33.203125
7933		-37.109375
7934		-35.156250
7935		-39.062500
7936		-37.109375
7937		-41.015625
7938		-37.109375
7939		-42.968750
7940		-39.062500
7941		-44.921875
7942		-41.015625
7943		-44.921875
7944		-42.968750
7945		-44.921875
7946		-42.968750
7947		-46.875000
7948		-42.968750
7949		-46.875000
7950		-44.921875
7951		-48.828125
7952		-44.921875
7953		-48.828125
7954		-44.921875
7955		-48.828125
7956		-46.875000
7957		-48.828125
7958		-46.875000
7959		-48.828125
7960		-44.921875
7961		-48.828125
7962		-46.875000
7963		-48.828125
7964		-44.921875
7965		-48.828125
7966		-44.921875
7967		-48.828125
7968		-44.921875
7969		-48.828125
7970		-42.968750
7971		-46.875000
7972		-42.968750
7973		-46.875000
7974		-41.015625
7975		-44.921875
7976		-41.015625
7977		-42.968750
7978		-39.062500
7979		-41.015625
7980		-37.109375
7981		-41.015625
7982		-35.156250
7983		-39.062500
7984		-35.156250
7985		-39.062500
7986		-31.250000
7987		-37.109375
7988		-31.250000
7989		-33.203125
7990		-29.296875
7991		-31.250000
7992		-27.343750
7993		-29.296875
7994		-25.390625
7995		-27.343750
7996		-23.437500
7997		-25.390625
7998		-19.531250
7999		-23.437500
8000		-17.578125
8001		-19.531250
8002		-13.671875
8003		-19.531250
8004		-11.718750
8005		-15.625000
8006		-9.765625
8007		-13.671875
8008		-7.812500
8009		-9.765625
8010		-5.859375
8011		-7.812500
8012		-1.953125
8013		-3.906250
8014		0.000000
8015		-3.906250
8016		3.906250
8017		0.000000
8018		5.859375
8019		3.906250
8020		9.765625
8021		5.859375
8022		11.718750
8023		7.812500
8024		13.671875
8025		11.718750
8026		15.625000
8027		13.671875
8028		17.578125
8029		17.578125
8030		21.484375
8031		19.531250
8032		25.390625
8033		21.484375
8034		27.343750
8035		25.390625
8036		29.296875
8037		25.390625
8038		31.250000
8039		29.296875
8040		33.203125
8041		31.250000
8042		37.109375
8043		33.203125
8044		39.062500
8045		37.109375
8046		41.015625
8047		39.062500
8048		42.968750
8049		39.062500
8050		44.921875
8051		42.968750
8052		46.875000
8053		42.968750
8054		50.781250
8055		44.921875
8056		50.781250
8057		46.875000
8058		52.734375
8059		48.828125
8060		52.734375
8061		50.781250
8062		54.687500
8063		52.734375
8064		56.640625
8065		52.734375
8066		56.640625
8067		54.687500
8068		58.593750
8069		54.687500
8070		60.546875
8071		56.640625
8072		60.546875
8073		56.640625
8074		60.546875
8075		56.640625
8076		62.500000
8077		58.593750
8078		60.546875
8079		58.593750
8080		60.546875
8081		58.593750
8082		62.500000
8083		58.593750
8084		62.500000
8085		58.593750
8086		62.500000
8087		56.640625
8088		64.453125
8089		58.593750
8090		62.500000
8091		58.593750
8092		60.546875
8093		58.593750
8094		62.500000
8095		58.593750
8096		60.546875
8097		56.640625
8098		60.546875
8099		56.640625
8100		58.593750
8101		54.687500
8102		58.593750
8103		52.734375
8104		58.593750
8105		52.734375
8106		56.640625
8107		52.734375
8108		54.687500
8109		48.828125
8110		54.687500
8111		48.828125
8112		52.734375
8113		46.875000
8114		50.781250
8115		44.921875
8116		48.828125
8117		42.968750
8118		46.875000
8119		41.015625
8120		46.875000
8121		37.109375
8122		46.875000
8123		37.109375
8124		41.015625
8125		35.156250
8126		41.015625
8127		33.203125
8128		37.109375
8129		31.250000
8130		35.156250
8131		27.343750
8132		33.203125
8133		25.390625
8134		29.296875
8135		23.437500
8136		27.343750
8137		19.531250
8138		25.390625
8139		17.578125
8140		23.437500
8141		15.625000
8142		19.531250
8143		13.671875
8144		17.578125
8145		9.765625
8146		13.671875
8147		5.859375
8148		11.718750
8149		3.906250
8150		9.765625
8151		1.953125
8152		5.859375
8153		-1.953125
8154		3.906250
8155		-3.906250
8156		0.000000
8157		-5.859375
8158		-1.953125
8159		-7.812500
8160		-3.906250
8161		-11.718750
8162		-7.812500
8163		-13.671875
8164		-9.765625
8165		-17.578125
8166		-11.718750
8167		-19.531250
8168		-15.625000
8169		-21.484375
8170		-17.578125
8171		-23.437500
8172		-17.578125
8173		-25.390625
8174		-21.484375
8175		-27.343750
8176		-25.390625
8177		-31.250000
8178		-25.390625
8179		-33.203125
8180		-29.296875
8181		-35.156250
8182		-31.250000
8183		-37.109375
8184		-33.203125
8185		-39.062500
8186		-35.156250
8187		-41.015625
8188		-37.109375
8189		-41.015625
8190		-37.109375
8191		-42.968750
8192		-39.062500
8193		-44.921875
8194		-39.062500
8195		-44.921875
8196		-41.015625
8197		-44.921875
8198		-42.968750
8199		-46.875000
8200		-42.968750
8201		-46.875000
8202		-44.921875
8203		-48.828125
8204		-44.921875
8205		-48.828125
8206		-44.921875
8207		-48.828125
8208		-46.875000
8209		-48.828125
8210		-44.921875
8211		-48.828125
8212		-44.921875
8213		-48.828125
8214		-46.875000
8215		-48.828125
8216		-44.921875
8217		-48.828125
8218		-44.921875
8219		-46.875000
8220		-44.921875
8221		-46.875000
8222		-42.968750
8223		-46.875000
8224		-42.968750
8225		-44.921875
8226		-41.015625
8227		-44.921875
8228		-41.015625
8229		-42.968750
8230		-39.062500
8231		-41.015625
8232		-37.109375
8233		-41.015625
8234		-35.156250
8235		-39.062500
8236		-35.156250
8237		-37.109375
8238		-33.203125
8239		-35.156250
8240		-31.250000
8241		-33.203125
8242		-29.296875
8243		-31.250000
8244		-27.343750
8245		-29.296875
8246		-25.390625
8247		-27.343750
8248		-23.437500
8249		-25.390625
8250		-21.484375
8251		-23.437500
8252		-17.578125
8253		-21.484375
8254		-15.625000
8255		-17.578125
8256		-13.671875
8257		-15.625000
8258		-9.765625
8259		-11.718750
8260		-7.812500
8261		-9.765625
8262		-5.859375
8263		-7.812500
8264		-1.953125
8265		-3.906250
8266		0.000000
8267		-1.953125
8268		3.906250
8269		1.953125
8270		5.859375
8271		3.906250
8272		7.812500
8273		5.859375
8274		11.718750
8275		9.765625
8276		13.671875
8277		11.718750
8278		15.625000
8279		13.671875
8280		19.531250
8281		17.578125
8282		21.484375
8283		19.531250
8284		23.437500
8285		21.484375
8286		27.343750
8287		25.390625
8288		29.296875
8289		27.343750
8290		33.203125
8291		29.296875
8292		33.203125
8293		33.203125
8294		37.109375
8295		33.203125
8296		37.109375
8297		37.109375
8298		41.015625
8299		39.062500
8300		42.968750
8301		41.015625
8302		44.921875
8303		42.968750
8304		46.875000
8305		44.921875
8306		48.828125
8307		46.875000
8308		50.781250
8309		46.875000
8310		52.734375
8311		48.828125
8312		52.734375
8313		50.781250
8314		54.687500
8315		52.734375
8316		56.640625
8317		52.734375
8318		56.640625
8319		54.687500
8320		58.593750
8321		54.687500
8322		58.593750
8323		56.640625
8324		60.546875
8325		56.640625
8326		60.546875
8327		58.593750
8328		62.500000
8329		58.593750
8330		60.546875
8331		58.593750
8332		60.546875
8333		58.593750
8334		62.500000
8335		58.593750
8336		62.500000
8337		58.593750
8338		62.500000
8339		58.593750
8340		62.500000
8341		58.593750
8342		62.500000
8343		58.593750
8344		62.500000
8345		58.593750
8346		62.500000
8347		58.593750
8348		60.546875
8349		56.640625
8350		60.546875
8351		56.640625
8352		60.546875
8353		54.687500
8354		58.593750
8355		54.687500
8356		58.593750
8357		52.734375
8358		56.640625
8359		50.781250
8360		54.687500
8361		50.781250
8362		54.687500
8363		48.828125
8364		52.734375
8365		46.875000
8366		50.781250
8367		44.921875
8368		48.828125
8369		42.968750
8370		46.875000
8371		41.015625
8372		46.875000
8373		39.062500
8374		42.968750
8375		37.109375
8376		41.015625
8377		35.156250
8378		39.062500
8379		33.203125
8380		39.062500
8381		31.250000
8382		35.156250
8383		29.296875
8384		33.203125
8385		25.390625
8386		29.296875
8387		23.437500
8388		27.343750
8389		19.531250
8390		25.390625
8391		17.578125
8392		23.437500
8393		15.625000
8394		19.531250
8395		11.718750
8396		17.578125
8397		9.765625
8398		13.671875
8399		7.812500
8400		11.718750
8401		5.859375
8402		9.765625
8403		1.953125
8404		7.812500
8405		0.000000
8406		3.906250
8407		-3.906250
8408		1.953125
8409		-5.859375
8410		-1.953125
8411		-9.765625
8412		-3.906250
8413		-11.718750
8414		-7.812500
8415		-13.671875
8416		-9.765625
8417		-15.625000
8418		-11.718750
8419		-19.531250
8420		-13.671875
8421		-21.484375
8422		-17.578125
8423		-23.437500
8424		-19.531250
8425		-27.343750
8426		-21.484375
8427		-29.296875
8428		-23.437500
8429		-31.250000
8430		-25.390625
8431		-33.203125
8432		-27.343750
8433		-35.156250
8434		-31.250000
8435		-37.109375
8436		-33.203125
8437		-39.062500
8438		-33.203125
8439		-39.062500
8440		-35.156250
8441		-41.015625
8442		-37.109375
8443		-42.968750
8444		-39.062500
8445		-44.921875
8446		-41.015625
8447		-44.921875
8448		-41.015625
8449		-44.921875
8450		-42.968750
8451		-46.875000
8452		-42.968750
8453		-46.875000
8454		-44.921875
8455		-48.828125
8456		-44.921875
8457		-48.828125
8458		-44.921875
8459		-48.828125
8460		-44.921875
8461		-48.828125
8462		-46.875000
8463		-48.828125
8464		-44.921875
8465		-48.828125
8466		-46.875000
8467		-48.828125
8468		-44.921875
8469		-48.828125
8470		-44.921875
8471		-48.828125
8472		-42.968750
8473		-46.875000
8474		-42.968750
8475		-46.875000
8476		-42.968750
8477		-44.921875
8478		-41.015625
8479		-44.921875
8480		-41.015625
8481		-42.968750
8482		-39.062500
8483		-41.015625
8484		-39.062500
8485		-41.015625
8486		-37.109375
8487		-39.062500
8488		-35.156250
8489		-37.109375
8490		-33.203125
8491		-35.156250
8492		-31.250000
8493		-33.203125
8494		-29.296875
8495		-31.250000
8496		-25.390625
8497		-29.296875
8498		-25.390625
8499		-27.343750
8500		-23.437500
8501		-25.390625
8502		-21.484375
8503		-21.484375
8504		-17.578125
8505		-19.531250
8506		-15.625000
8507		-17.578125
8508		-13.671875
8509		-15.625000
8510		-9.765625
8511		-11.718750
8512		-7.812500
8513		-9.765625
8514		-5.859375
8515		-7.812500
8516		-1.953125
8517		-3.906250
8518		1.953125
8519		-1.953125
8520		1.953125
8521		1.953125
8522		5.859375
8523		3.906250
8524		7.812500
8525		5.859375
8526		11.718750
8527		7.812500
8528		13.671875
8529		11.718750
8530		17.578125
8531		13.671875
8532		19.531250
8533		17.578125
8534		21.484375
8535		19.531250
8536		23.437500
8537		21.484375
8538		25.390625
8539		23.437500
8540		29.296875
8541		27.343750
8542		31.250000
8543		29.296875
8544		33.203125
8545		31.250000
8546		37.109375
8547		33.203125
8548		39.062500
8549		37.109375
8550		41.015625
8551		39.062500
8552		42.968750
8553		41.015625
8554		44.921875
8555		42.968750
8556		46.875000
8557		44.921875
8558		48.828125
8559		44.921875
8560		50.781250
8561		48.828125
8562		50.781250
8563		48.828125
8564		52.734375
8565		50.781250
8566		54.687500
8567		52.734375
8568		54.687500
8569		52.734375
8570		56.640625
8571		54.687500
8572		58.593750
8573		54.687500
8574		58.593750
8575		56.640625
8576		60.546875
8577		56.640625
8578		60.546875
8579		58.593750
8580		62.500000
8581		56.640625
8582		60.546875
8583		58.593750
8584		62.500000
8585		58.593750
8586		62.500000
8587		58.593750
8588		62.500000
8589		58.593750
8590		62.500000
8591		58.593750
8592		62.500000
8593		58.593750
8594		62.500000
8595		58.593750
8596		62.500000
8597		56.640625
8598		62.500000
8599		58.593750
8600		60.546875
8601		56.640625
8602		60.546875
8603		56.640625
8604		58.593750
8605		54.687500
8606		58.593750
8607		54.687500
8608		58.593750
8609		52.734375
8610		56.640625
8611		50.781250
8612		54.687500
8613		48.828125
8614		52.734375
8615		48.828125
8616		52.734375
8617		46.875000
8618		50.781250
8619		44.921875
8620		48.828125
8621		42.968750
8622		46.875000
8623		41.015625
8624		44.921875
8625		39.062500
8626		42.968750
8627		37.109375
8628		42.968750
8629		35.156250
8630		39.062500
8631		33.203125
8632		37.109375
8633		31.250000
8634		35.156250
8635		27.343750
8636		33.203125
8637		25.390625
8638		29.296875
8639		23.437500
8640		27.343750
8641		19.531250
8642		25.390625
8643		17.578125
8644		23.437500
8645		15.625000
8646		19.531250
8647		13.671875
8648		17.578125
8649		9.765625
8650		13.671875
8651		7.812500
8652		11.718750
8653		3.906250
8654		9.765625
8655		1.953125
8656		5.859375
8657		0.000000
8658		3.906250
8659		-3.906250
8660		0.000000
8661		-5.859375
8662		-1.953125
8663		-9.765625
8664		-3.906250
8665		-11.718750
8666		-5.859375
8667		-13.671875
8668		-9.765625
8669		-15.625000
8670		-11.718750
8671		-19.531250
8672		-13.671875
8673		-21.484375
8674		-17.578125
8675		-23.437500
8676		-19.531250
8677		-25.390625
8678		-21.484375
8679		-29.296875
8680		-23.437500
8681		-31.250000
8682		-25.390625
8683		-33.203125
8684		-29.296875
8685		-35.156250
8686		-31.250000
8687		-37.109375
8688		-31.250000
8689		-37.109375
8690		-35.156250
8691		-39.062500
8692		-37.109375
8693		-41.015625
8694		-37.109375
8695		-42.968750
8696		-39.062500
8697		-42.968750
8698		-41.015625
8699		-44.921875
8700		-41.015625
8701		-44.921875
8702		-42.968750
8703		-46.875000
8704		-42.968750
8705		-48.828125
8706		-44.921875
8707		-48.828125
8708		-44.921875
8709		-48.828125
8710		-44.921875
8711		-48.828125
8712		-44.921875
8713		-48.828125
8714		-46.875000
8715		-48.828125
8716		-44.921875
8717		-48.828125
8718		-46.875000
8719		-48.828125
8720		-44.921875
8721		-48.828125
8722		-44.921875
8723		-48.828125
8724		-44.921875
8725		-46.875000
8726		-44.921875
8727		-46.875000
8728		-42.968750
8729		-46.875000
8730		-42.968750
8731		-44.921875
8732		-41.015625
8733		-42.968750
8734		-39.062500
8735		-41.015625
8736		-39.062500
8737		-41.015625
8738		-37.109375
8739		-39.062500
8740		-35.156250
8741		-37.109375
8742		-33.203125
8743		-35.156250
8744		-31.250000
8745		-33.203125
8746		-29.296875
8747		-31.250000
8748		-27.343750
8749		-29.296875
8750		-25.390625
8751		-27.343750
8752		-23.437500
8753		-25.390625
8754		-19.531250
8755		-23.437500
8756		-17.578125
8757		-19.531250
8758		-15.625000
8759		-17.578125
8760		-13.671875
8761		-15.625000
8762		-11.718750
8763		-11.718750
8764		-7.812500
8765		-9.765625
8766		-5.859375
8767		-7.812500
8768		-3.906250
8769		-3.906250
8770		0.000000
8771		-1.953125
8772		3.906250
8773		0.000000
8774		5.859375
8775		3.906250
8776		7.812500
8777		5.859375
8778		9.765625
8779		7.812500
8780		13.671875
8781		11.718750
8782		17.578125
8783		13.671875
8784		17.578125
8785		17.578125
8786		21.484375
8787		19.531250
8788		25.390625
8789		21.484375
8790		25.390625
8791		23.437500
8792		29.296875
8793		27.343750
8794		31.250000
8795		29.296875
8796		33.203125
8797		31.250000
8798		37.109375
8799		33.203125
8800		37.109375
8801		37.109375
8802		41.015625
8803		39.062500
8804		42.968750
8805		41.015625
8806		44.921875
8807		42.968750
8808		46.875000
8809		44.921875
8810		48.828125
8811		44.921875
8812		48.828125
8813		46.875000
8814		50.781250
8815		48.828125
8816		52.734375
8817		50.781250
8818		52.734375
8819		52.734375
8820		54.687500
8821		52.734375
8822		56.640625
8823		54.687500
8824		58.593750
8825		54.687500
8826		58.593750
8827		56.640625
8828		60.546875
8829		56.640625
8830		60.546875
8831		56.640625
8832		60.546875
8833		58.593750
8834		60.546875
8835		58.593750
8836		62.500000
8837		58.593750
8838		62.500000
8839		58.593750
8840		62.500000
8841		58.593750
8842		62.500000
8843		58.593750
8844		62.500000
8845		58.593750
8846		62.500000
8847		58.593750
8848		62.500000
8849		56.640625
8850		60.546875
8851		58.593750
8852		60.546875
8853		56.640625
8854		60.546875
8855		56.640625
8856		60.546875
8857		54.687500
8858		58.593750
8859		54.687500
8860		56.640625
8861		52.734375
8862		56.640625
8863		50.781250
8864		54.687500
8865		48.828125
8866		54.687500
8867		48.828125
8868		52.734375
8869		46.875000
8870		50.781250
8871		44.921875
8872		48.828125
8873		42.968750
8874		46.875000
8875		41.015625
8876		46.875000
8877		39.062500
8878		42.968750
8879		37.109375
8880		41.015625
8881		35.156250
8882		39.062500
8883		33.203125
8884		37.109375
8885		31.250000
8886		35.156250
8887		27.343750
8888		33.203125
8889		25.390625
8890		29.296875
8891		23.437500
8892		27.343750
8893		21.484375
8894		25.390625
8895		17.578125
8896		23.437500
8897		15.625000
8898		19.531250
8899		13.671875
8900		17.578125
8901		9.765625
8902		13.671875
8903		7.812500
8904		11.718750
8905		5.859375
8906		9.765625
8907		0.000000
8908		5.859375
8909		-1.953125
8910		3.906250
8911		-3.906250
8912		1.953125
8913		-5.859375
8914		-1.953125
8915		-9.765625
8916		-3.906250
8917		-11.718750
8918		-5.859375
8919		-13.671875
8920		-9.765625
8921		-17.578125
8922		-11.718750
8923		-19.531250
8924		-15.625000
8925		-21.484375
8926		-17.578125
8927		-23.437500
8928		-19.531250
8929		-27.343750
8930		-21.484375
8931		-29.296875
8932		-23.437500
8933		-31.250000
8934		-27.343750
8935		-33.203125
8936		-29.296875
8937		-35.156250
8938		-31.250000
8939		-37.109375
8940		-31.250000
8941		-39.062500
8942		-35.156250
8943		-39.062500
8944		-35.156250
8945		-41.015625
8946		-37.109375
8947		-42.968750
8948		-39.062500
8949		-44.921875
8950		-41.015625
8951		-44.921875
8952		-42.968750
8953		-44.921875
8954		-42.968750
8955		-46.875000
8956		-42.968750
8957		-46.875000
8958		-44.921875
8959		-48.828125
8960		-44.921875
8961		-48.828125
8962		-44.921875
8963		-48.828125
8964		-44.921875
8965		-48.828125
8966		-46.875000
8967		-48.828125
8968		-44.921875
8969		-48.828125
8970		-46.875000
8971		-48.828125
8972		-46.875000
8973		-48.828125
8974		-44.921875
8975		-48.828125
8976		-44.921875
8977		-46.875000
8978		-42.968750
8979		-46.875000
8980		-42.968750
8981		-44.921875
8982		-42.968750
8983		-44.921875
8984		-39.062500
8985		-42.968750
8986		-41.015625
8987		-42.968750
8988		-39.062500
8989		-41.015625
8990		-37.109375
8991		-39.062500
8992		-35.156250
8993		-37.109375
8994		-33.203125
8995		-35.156250
8996		-31.250000
8997		-33.203125
8998		-29.296875
8999		-31.250000
9000		-27.343750
9001		-31.250000
9002		-25.390625
9003		-27.343750
9004		-23.437500
9005		-25.390625
9006		-19.531250
9007		-23.437500
9008		-19.531250
9009		-21.484375
9010		-15.625000
9011		-17.578125
9012		-13.671875
9013		-15.625000
9014		-11.718750
9015		-13.671875
9016		-7.812500
9017		-9.765625
9018		-5.859375
9019		-7.812500
9020		-3.906250
9021		-3.906250
9022		0.000000
9023		-1.953125
9024		1.953125
9025		0.000000
9026		5.859375
9027		3.906250
9028		7.812500
9029		5.859375
9030		9.765625
9031		9.765625
9032		13.671875
9033		11.718750
9034		17.578125
9035		13.671875
9036		17.578125
9037		17.578125
9038		21.484375
9039		19.531250
9040		23.437500
9041		21.484375
9042		27.343750
9043		25.390625
9044		29.296875
9045		25.390625
9046		31.250000
9047		29.296875
9048		33.203125
9049		31.250000
9050		37.109375
9051		33.203125
9052		37.109375
9053		37.109375
9054		39.062500
9055		39.062500
9056		42.968750
9057		41.015625
9058		44.921875
9059		41.015625
9060		46.875000
9061		44.921875
9062		48.828125
9063		44.921875
9064		50.781250
9065		46.875000
9066		50.781250
9067		48.828125
9068		52.734375
9069		50.781250
9070		54.687500
9071		52.734375
9072		54.687500
9073		52.734375
9074		56.640625
9075		54.687500
9076		58.593750
9077		54.687500
9078		58.593750
9079		56.640625
9080		58.593750
9081		56.640625
9082		60.546875
9083		56.640625
9084		60.546875
9085		58.593750
9086		62.500000
9087		58.593750
9088		62.500000
9089		58.593750
9090		62.500000
9091		58.593750
9092		62.500000
9093		58.593750
9094		62.500000
9095		58.593750
9096		62.500000
9097		58.593750
9098		62.500000
9099		58.593750
9100		62.500000
9101		56.640625
9102		62.500000
9103		58.593750
9104		60.546875
9105		56.640625
9106		60.546875
9107		54.687500
9108		60.546875
9109		54.687500
9110		58.593750
9111		54.687500
9112		56.640625
9113		52.734375
9114		56.640625
9115		50.781250
9116		54.687500
9117		50.781250
9118		52.734375
9119		48.828125
9120		52.734375
9121		46.875000
9122		50.781250
9123		44.921875
9124		48.828125
9125		42.968750
9126		46.875000
9127		41.015625
9128		44.921875
9129		39.062500
9130		42.968750
9131		37.109375
9132		41.015625
9133		35.156250
9134		41.015625
9135		33.203125
9136		37.109375
9137		31.250000
9138		35.156250
9139		27.343750
9140		33.203125
9141		25.390625
9142		29.296875
9143		23.437500
9144		27.343750
9145		19.531250
9146		25.390625
9147		17.578125
9148		23.437500
9149		15.625000
9150		19.531250
9151		11.718750
9152		17.578125
9153		9.765625
9154		15.625000
9155		7.812500
9156		11.718750
9157		3.906250
9158		9.765625
9159		1.953125
9160		5.859375
9161		-1.953125
9162		3.906250
9163		-3.906250
9164		0.000000
9165		-5.859375
9166		-1.953125
9167		-9.765625
9168		-3.906250
9169		-11.718750
9170		-5.859375
9171		-13.671875
9172		-9.765625
9173		-17.578125
9174		-11.718750
9175		-19.531250
9176		-15.625000
9177		-21.484375
9178		-17.578125
9179		-23.437500
9180		-19.531250
9181		-27.343750
9182		-21.484375
9183		-29.296875
9184		-25.390625
9185		-31.250000
9186		-25.390625
9187		-33.203125
9188		-29.296875
9189		-35.156250
9190		-31.250000
9191		-37.109375
9192		-31.250000
9193		-39.062500
9194		-33.203125
9195		-39.062500
9196		-37.109375
9197		-41.015625
9198		-39.062500
9199		-42.968750
9200		-39.062500
9201		-44.921875
9202		-41.015625
9203		-44.921875
9204		-41.015625
9205		-44.921875
9206		-42.968750
9207		-48.828125
9208		-42.968750
9209		-48.828125
9210		-44.921875
9211		-48.828125
9212		-44.921875
9213		-48.828125
9214		-44.921875
9215		-50.781250
9216		-44.921875
9217		-48.828125
9218		-46.875000
9219		-50.781250
9220		-44.921875
9221		-48.828125
9222		-46.875000
9223		-48.828125
9224		-44.921875
9225		-48.828125
9226		-44.921875
9227		-48.828125
9228		-44.921875
9229		-46.875000
9230		-44.921875
9231		-46.875000
9232		-42.968750
9233		-46.875000
9234		-42.968750
9235		-44.921875
9236		-41.015625
9237		-42.968750
9238		-41.015625
9239		-42.968750
9240		-39.062500
9241		-41.015625
9242		-37.109375
9243		-39.062500
9244		-35.156250
9245		-37.109375
9246		-33.203125
9247		-35.156250
9248		-31.250000
9249		-35.156250
9250		-29.296875
9251		-31.250000
9252		-27.343750
9253		-31.250000
9254		-25.390625
9255		-27.343750
9256		-23.437500
9257		-25.390625
9258		-19.531250
9259		-23.437500
9260		-19.531250
9261		-21.484375
9262		-15.625000
9263		-17.578125
9264		-13.671875
9265		-15.625000
9266		-9.765625
9267		-11.718750
9268		-7.812500
9269		-11.718750
9270		-5.859375
9271		-7.812500
9272		-3.906250
9273		-3.906250
9274		0.000000
9275		-1.953125
9276		1.953125
9277		0.000000
9278		5.859375
9279		3.906250
9280		7.812500
9281		5.859375
9282		9.765625
9283		7.812500
9284		13.671875
9285		11.718750
9286		15.625000
9287		11.718750
9288		19.531250
9289		17.578125
9290		21.484375
9291		19.531250
9292		23.437500
9293		21.484375
9294		25.390625
9295		23.437500
9296		29.296875
9297		27.343750
9298		31.250000
9299		29.296875
9300		33.203125
9301		31.250000
9302		35.156250
9303		33.203125
9304		37.109375
9305		37.109375
9306		41.015625
9307		39.062500
9308		42.968750
9309		41.015625
9310		44.921875
9311		41.015625
9312		46.875000
9313		42.968750
9314		48.828125
9315		44.921875
9316		48.828125
9317		46.875000
9318		50.781250
9319		48.828125
9320		54.687500
9321		50.781250
9322		52.734375
9323		52.734375
9324		54.687500
9325		52.734375
9326		56.640625
9327		54.687500
9328		56.640625
9329		54.687500
9330		58.593750
9331		56.640625
9332		58.593750
9333		56.640625
9334		60.546875
9335		58.593750
9336		60.546875
9337		56.640625
9338		60.546875
9339		58.593750
9340		60.546875
9341		58.593750
9342		62.500000
9343		58.593750
9344		62.500000
9345		58.593750
9346		62.500000
9347		58.593750
9348		62.500000
9349		58.593750
9350		62.500000
9351		58.593750
9352		60.546875
9353		56.640625
9354		60.546875
9355		58.593750
9356		60.546875
9357		56.640625
9358		58.593750
9359		56.640625
9360		60.546875
9361		54.687500
9362		58.593750
9363		54.687500
9364		56.640625
9365		52.734375
9366		56.640625
9367		50.781250
9368		54.687500
9369		50.781250
9370		52.734375
9371		48.828125
9372		52.734375
9373		46.875000
9374		50.781250
9375		44.921875
9376		48.828125
9377		42.968750
9378		46.875000
9379		41.015625
9380		44.921875
9381		39.062500
9382		42.968750
9383		37.109375
9384		41.015625
9385		35.156250
9386		39.062500
9387		33.203125
9388		37.109375
9389		31.250000
9390		35.156250
9391		27.343750
9392		31.250000
9393		25.390625
9394		29.296875
9395		23.437500
9396		27.343750
9397		21.484375
9398		25.390625
9399		17.578125
9400		23.437500
9401		15.625000
9402		19.531250
9403		11.718750
9404		17.578125
9405		9.765625
9406		13.671875
9407		7.812500
9408		11.718750
9409		3.906250
9410		9.765625
9411		1.953125
9412		5.859375
9413		0.000000
9414		3.906250
9415		-3.906250
9416		0.000000
9417		-5.859375
9418		-1.953125
9419		-7.812500
9420		-3.906250
9421		-11.718750
9422		-5.859375
9423		-13.671875
9424		-9.765625
9425		-17.578125
9426		-11.718750
9427		-19.531250
9428		-13.671875
9429		-21.484375
9430		-17.578125
9431		-23.437500
9432		-19.531250
9433		-25.390625
9434		-21.484375
9435		-29.296875
9436		-25.390625
9437		-31.250000
9438		-25.390625
9439		-33.203125
9440		-29.296875
9441		-35.156250
9442		-31.250000
9443		-37.109375
9444		-33.203125
9445		-39.062500
9446		-35.156250
9447		-39.062500
9448		-37.109375
9449		-41.015625
9450		-37.109375
9451		-42.968750
9452		-39.062500
9453		-44.921875
9454		-41.015625
9455		-44.921875
9456		-41.015625
9457		-46.875000
9458		-42.968750
9459		-48.828125
9460		-42.968750
9461		-48.828125
9462		-44.921875
9463		-48.828125
9464		-44.921875
9465		-48.828125
9466		-44.921875
9467		-48.828125
9468		-46.875000
9469		-48.828125
9470		-46.875000
9471		-48.828125
9472		-46.875000
9473		-48.828125
9474		-46.875000
9475		-48.828125
9476		-44.921875
9477		-48.828125
9478		-44.921875
9479		-48.828125
9480		-44.921875
9481		-48.828125
9482		-42.968750
9483		-46.875000
9484		-42.968750
9485		-46.875000
9486		-42.968750
9487		-44.921875
9488		-41.015625
9489		-42.968750
9490		-41.015625
9491		-42.968750
9492		-39.062500
9493		-41.015625
9494		-37.109375
9495		-39.062500
9496		-35.156250
9497		-37.109375
9498		-33.203125
9499		-35.156250
9500		-31.250000
9501		-33.203125
9502		-29.296875
9503		-33.203125
9504		-27.343750
9505		-31.250000
9506		-25.390625
9507		-27.343750
9508		-23.437500
9509		-25.390625
9510		-19.531250
9511		-23.437500
9512		-19.531250
9513		-21.484375
9514		-15.625000
9515		-17.578125
9516		-13.671875
9517		-15.625000
9518		-9.765625
9519		-13.671875
9520		-7.812500
9521		-9.765625
9522		-3.906250
9523		-7.812500
9524		-3.906250
9525		-5.859375
9526		0.000000
9527		-3.906250
9528		1.953125
9529		0.000000
9530		5.859375
9531		1.953125
9532		7.812500
9533		5.859375
9534		9.765625
9535		7.812500
9536		13.671875
9537		11.718750
9538		15.625000
9539		13.671875
9540		17.578125
9541		17.578125
9542		21.484375
9543		19.531250
9544		23.437500
9545		21.484375
9546		25.390625
9547		23.437500
9548		29.296875
9549		27.343750
9550		31.250000
9551		29.296875
9552		33.203125
9553		31.250000
9554		37.109375
9555		33.203125
9556		37.109375
9557		37.109375
9558		41.015625
9559		39.062500
9560		42.968750
9561		39.062500
9562		44.921875
9563		41.015625
9564		46.875000
9565		42.968750
9566		46.875000
9567		44.921875
9568		48.828125
9569		46.875000
9570		50.781250
9571		48.828125
9572		52.734375
9573		50.781250
9574		54.687500
9575		52.734375
9576		54.687500
9577		52.734375
9578		56.640625
9579		54.687500
9580		56.640625
9581		54.687500
9582		58.593750
9583		56.640625
9584		60.546875
9585		56.640625
9586		60.546875
9587		58.593750
9588		60.546875
9589		58.593750
9590		60.546875
9591		58.593750
9592		60.546875
9593		58.593750
9594		62.500000
9595		58.593750
9596		62.500000
9597		58.593750
9598		62.500000
9599		58.593750
9600		62.500000
9601		58.593750
9602		62.500000
9603		58.593750
9604		60.546875
9605		58.593750
9606		60.546875
9607		56.640625
9608		60.546875
9609		56.640625
9610		58.593750
9611		54.687500
9612		58.593750
9613		54.687500
9614		58.593750
9615		54.687500
9616		58.593750
9617		52.734375
9618		56.640625
9619		50.781250
9620		54.687500
9621		48.828125
9622		52.734375
9623		48.828125
9624		52.734375
9625		46.875000
9626		50.781250
9627		44.921875
9628		48.828125
9629		42.968750
9630		46.875000
9631		41.015625
9632		44.921875
9633		39.062500
9634		42.968750
9635		37.109375
9636		41.015625
9637		35.156250
9638		39.062500
9639		33.203125
9640		37.109375
9641		31.250000
9642		35.156250
9643		27.343750
9644		31.250000
9645		25.390625
9646		31.250000
9647		23.437500
9648		27.343750
9649		21.484375
9650		25.390625
9651		17.578125
9652		21.484375
9653		15.625000
9654		19.531250
9655		11.718750
9656		17.578125
9657		9.765625
9658		13.671875
9659		7.812500
9660		11.718750
9661		3.906250
9662		7.812500
9663		1.953125
9664		5.859375
9665		0.000000
9666		3.906250
9667		-3.906250
9668		1.953125
9669		-5.859375
9670		-1.953125
9671		-9.765625
9672		-3.906250
9673		-11.718750
9674		-7.812500
9675		-13.671875
9676		-9.765625
9677		-17.578125
9678		-13.671875
9679		-19.531250
9680		-13.671875
9681		-21.484375
9682		-17.578125
9683		-23.437500
9684		-19.531250
9685		-27.343750
9686		-21.484375
9687		-29.296875
9688		-25.390625
9689		-31.250000
9690		-25.390625
9691		-33.203125
9692		-29.296875
9693		-35.156250
9694		-31.250000
9695		-37.109375
9696		-31.250000
9697		-39.062500
9698		-35.156250
9699		-41.015625
9700		-37.109375
9701		-41.015625
9702		-39.062500
9703		-42.968750
9704		-39.062500
9705		-44.921875
9706		-41.015625
9707		-46.875000
9708		-41.015625
9709		-46.875000
9710		-42.968750
9711		-46.875000
9712		-44.921875
9713		-48.828125
9714		-44.921875
9715		-48.828125
9716		-44.921875
9717		-48.828125
9718		-46.875000
9719		-48.828125
9720		-46.875000
9721		-50.781250
9722		-46.875000
9723		-50.781250
9724		-46.875000
9725		-48.828125
9726		-46.875000
9727		-48.828125
9728		-46.875000
9729		-50.781250
9730		-46.875000
9731		-48.828125
9732		-44.921875
9733		-48.828125
9734		-44.921875
9735		-46.875000
9736		-42.968750
9737		-46.875000
9738		-42.968750
9739		-44.921875
9740		-41.015625
9741		-44.921875
9742		-41.015625
9743		-42.968750
9744		-39.062500
9745		-41.015625
9746		-37.109375
9747		-39.062500
9748		-35.156250
9749		-37.109375
9750		-33.203125
9751		-37.109375
9752		-33.203125
9753		-35.156250
9754		-31.250000
9755		-33.203125
9756		-27.343750
9757		-29.296875
9758		-25.390625
9759		-27.343750
9760		-23.437500
9761		-25.390625
9762		-21.484375
9763		-23.437500
9764		-17.578125
9765		-21.484375
9766		-17.578125
9767		-17.578125
9768		-13.671875
9769		-15.625000
9770		-11.718750
9771		-13.671875
9772		-9.765625
9773		-11.718750
9774		-5.859375
9775		-7.812500
9776		-3.906250
9777		-5.859375
9778		-1.953125
9779		-1.953125
9780		1.953125
9781		0.000000
9782		3.906250
9783		1.953125
9784		7.812500
9785		5.859375
9786		9.765625
9787		7.812500
9788		13.671875
9789		9.765625
9790		15.625000
9791		11.718750
9792		17.578125
9793		15.625000
9794		21.484375
9795		19.531250
9796		23.437500
9797		21.484375
9798		25.390625
9799		23.437500
9800		29.296875
9801		27.343750
9802		31.250000
9803		27.343750
9804		33.203125
9805		31.250000
9806		35.156250
9807		33.203125
9808		39.062500
9809		35.156250
9810		39.062500
9811		37.109375
9812		41.015625
9813		39.062500
9814		42.968750
9815		41.015625
9816		44.921875
9817		42.968750
9818		46.875000
9819		44.921875
9820		48.828125
9821		46.875000
9822		50.781250
9823		48.828125
9824		52.734375
9825		48.828125
9826		52.734375
9827		50.781250
9828		54.687500
9829		52.734375
9830		56.640625
9831		52.734375
9832		56.640625
9833		54.687500
9834		58.593750
9835		56.640625
9836		58.593750
9837		56.640625
9838		60.546875
9839		56.640625
9840		60.546875
9841		56.640625
9842		60.546875
9843		58.593750
9844		60.546875
9845		58.593750
9846		60.546875
9847		58.593750
9848		62.500000
9849		58.593750
9850		62.500000
9851		58.593750
9852		62.500000
9853		58.593750
9854		62.500000
9855		58.593750
9856		60.546875
9857		56.640625
9858		60.546875
9859		56.640625
9860		60.546875
9861		56.640625
9862		58.593750
9863		54.687500
9864		58.593750
9865		54.687500
9866		56.640625
9867		52.734375
9868		56.640625
9869		52.734375
9870		54.687500
9871		50.781250
9872		54.687500
9873		48.828125
9874		52.734375
9875		48.828125
9876		52.734375
9877		46.875000
9878		48.828125
9879		42.968750
9880		48.828125
9881		42.968750
9882		46.875000
9883		41.015625
9884		44.921875
9885		39.062500
9886		42.968750
9887		37.109375
9888		41.015625
9889		35.156250
9890		39.062500
9891		33.203125
9892		37.109375
9893		31.250000
9894		33.203125
9895		27.343750
9896		31.250000
9897		25.390625
9898		31.250000
9899		21.484375
9900		27.343750
9901		19.531250
9902		23.437500
9903		17.578125
9904		21.484375
9905		15.625000
9906		19.531250
9907		11.718750
9908		17.578125
9909		9.765625
9910		15.625000
9911		7.812500
9912		11.718750
9913		3.906250
9914		7.812500
9915		1.953125
9916		5.859375
9917		-1.953125
9918		3.906250
9919		-3.906250
9920		0.000000
9921		-5.859375
9922		-1.953125
9923		-9.765625
9924		-3.906250
9925		-11.718750
9926		-7.812500
9927		-15.625000
9928		-9.765625
9929		-17.578125
9930		-13.671875
9931		-19.531250
9932		-15.625000
9933		-21.484375
9934		-17.578125
9935		-25.390625
9936		-19.531250
9937		-27.343750
9938		-23.437500
9939		-29.296875
9940		-25.390625
9941		-31.250000
9942		-27.343750
9943		-33.203125
9944		-29.296875
9945		-35.156250
9946		-31.250000
9947		-37.109375
9948		-33.203125
9949		-39.062500
9950		-35.156250
9951		-41.015625
9952		-37.109375
9953		-41.015625
9954		-39.062500
9955		-42.968750
9956		-39.062500
9957		-44.921875
9958		-41.015625
9959		-46.875000
9960		-41.015625
9961		-46.875000
9962		-42.968750
9963		-48.828125
9964		-42.968750
9965		-48.828125
9966		-44.921875
9967		-48.828125
9968		-44.921875
9969		-48.828125
9970		-46.875000
9971		-50.781250
9972		-46.875000
9973		-50.781250
9974		-46.875000
9975		-50.781250
9976		-46.875000
9977		-48.828125
9978		-46.875000
9979		-48.828125
9980		-46.875000
9981		-50.781250
9982		-46.875000
9983		-48.828125
9984		-44.921875
9985		-48.828125
9986		-44.921875
9987		-48.828125
9988		-42.968750
9989		-46.875000
9990		-42.968750
9991		-46.875000
9992		-41.015625
9993		-44.921875
9994		-41.015625
9995		-42.968750
9996		-39.062500
9997		-41.015625
9998		-37.109375
9999		-39.062500
10000		-35.156250
