Channel              :		CH1
Frequency            :		1.987kHz
Period               :		0.503ms
PK-PK                :		212.9mV
Probe attenuation    :		1X
Voltage per ADC value:		0.122070mV
Time interval        :		2.00000us

index		CH1_Voltage(mV)
1		83.984375
2		83.984375
3		89.843750
4		87.890625
5		91.796875
6		89.843750
7		93.750000
8		91.796875
9		95.703125
10		93.750000
11		97.656250
12		95.703125
13		99.609375
14		97.656250
15		99.609375
16		97.656250
17		101.562500
18		99.609375
19		101.562500
20		99.609375
21		103.515625
22		101.562500
23		103.515625
24		101.562500
25		105.468750
26		101.562500
27		105.468750
28		101.562500
29		105.468750
30		101.562500
31		103.515625
32		99.609375
33		105.468750
34		99.609375
35		103.515625
36		97.656250
37		103.515625
38		97.656250
39		101.562500
40		97.656250
41		99.609375
42		95.703125
43		99.609375
44		93.750000
45		97.656250
46		91.796875
47		95.703125
48		89.843750
49		93.750000
50		85.937500
51		91.796875
52		83.984375
53		89.843750
54		82.031250
55		87.890625
56		80.078125
57		83.984375
58		76.171875
59		82.031250
60		72.265625
61		78.125000
62		68.359375
63		74.218750
64		64.453125
65		70.312500
66		60.546875
67		66.406250
68		56.640625
69		62.500000
70		52.734375
71		58.593750
72		48.828125
73		54.687500
74		42.968750
75		50.781250
76		41.015625
77		46.875000
78		35.156250
79		42.968750
80		31.250000
81		37.109375
82		25.390625
83		31.250000
84		21.484375
85		27.343750
86		13.671875
87		21.484375
88		9.765625
89		17.578125
90		5.859375
91		11.718750
92		0.000000
93		7.812500
94		-3.906250
95		1.953125
96		-9.765625
97		-3.906250
98		-15.625000
99		-7.812500
100		-19.531250
101		-13.671875
102		-25.390625
103		-17.578125
104		-29.296875
105		-23.437500
106		-35.156250
107		-29.296875
108		-39.062500
109		-33.203125
110		-44.921875
111		-37.109375
112		-48.828125
113		-42.968750
114		-52.734375
115		-46.875000
116		-56.640625
117		-52.734375
118		-62.500000
119		-56.640625
120		-66.406250
121		-60.546875
122		-70.312500
123		-64.453125
124		-72.265625
125		-68.359375
126		-76.171875
127		-70.312500
128		-80.078125
129		-74.218750
130		-82.031250
131		-78.125000
132		-85.937500
133		-80.078125
134		-87.890625
135		-83.984375
136		-89.843750
137		-85.937500
138		-91.796875
139		-87.890625
140		-93.750000
141		-89.843750
142		-97.656250
143		-91.796875
144		-95.703125
145		-93.750000
146		-97.656250
147		-93.750000
148		-99.609375
149		-95.703125
150		-99.609375
151		-95.703125
152		-99.609375
153		-95.703125
154		-99.609375
155		-95.703125
156		-99.609375
157		-95.703125
158		-97.656250
159		-93.750000
160		-97.656250
161		-93.750000
162		-97.656250
163		-93.750000
164		-95.703125
165		-91.796875
166		-93.750000
167		-89.843750
168		-91.796875
169		-87.890625
170		-89.843750
171		-83.984375
172		-87.890625
173		-82.031250
174		-83.984375
175		-80.078125
176		-82.031250
177		-76.171875
178		-80.078125
179		-74.218750
180		-74.218750
181		-70.312500
182		-72.265625
183		-66.406250
184		-68.359375
185		-62.500000
186		-64.453125
187		-58.593750
188		-60.546875
189		-54.687500
190		-56.640625
191		-50.781250
192		-50.781250
193		-44.921875
194		-46.875000
195		-41.015625
196		-42.968750
197		-35.156250
198		-39.062500
199		-31.250000
200		-33.203125
201		-25.390625
202		-27.343750
203		-21.484375
204		-23.437500
205		-15.625000
206		-17.578125
207		-11.718750
208		-11.718750
209		-5.859375
210		-7.812500
211		0.000000
212		-1.953125
213		3.906250
214		1.953125
215		9.765625
216		7.812500
217		15.625000
218		11.718750
219		19.531250
220		17.578125
221		23.437500
222		23.437500
223		29.296875
224		27.343750
225		33.203125
226		33.203125
227		39.062500
228		37.109375
229		42.968750
230		41.015625
231		46.875000
232		46.875000
233		50.781250
234		48.828125
235		56.640625
236		54.687500
237		60.546875
238		58.593750
239		64.453125
240		62.500000
241		68.359375
242		66.406250
243		70.312500
244		68.359375
245		74.218750
246		72.265625
247		78.125000
248		76.171875
249		82.031250
250		80.078125
251		83.984375
252		82.031250
253		87.890625
254		85.937500
255		89.843750
256		87.890625
257		91.796875
258		89.843750
259		93.750000
260		91.796875
261		95.703125
262		93.750000
263		97.656250
264		95.703125
265		99.609375
266		95.703125
267		101.562500
268		97.656250
269		101.562500
270		99.609375
271		103.515625
272		99.609375
273		103.515625
274		101.562500
275		103.515625
276		99.609375
277		105.468750
278		101.562500
279		105.468750
280		101.562500
281		105.468750
282		101.562500
283		105.468750
284		99.609375
285		105.468750
286		99.609375
287		103.515625
288		99.609375
289		103.515625
290		97.656250
291		101.562500
292		97.656250
293		99.609375
294		95.703125
295		99.609375
296		93.750000
297		97.656250
298		91.796875
299		95.703125
300		89.843750
301		93.750000
302		85.937500
303		91.796875
304		83.984375
305		87.890625
306		82.031250
307		85.937500
308		78.125000
309		83.984375
310		74.218750
311		80.078125
312		72.265625
313		78.125000
314		68.359375
315		74.218750
316		64.453125
317		70.312500
318		60.546875
319		68.359375
320		56.640625
321		62.500000
322		52.734375
323		58.593750
324		48.828125
325		54.687500
326		44.921875
327		50.781250
328		39.062500
329		44.921875
330		35.156250
331		41.015625
332		29.296875
333		37.109375
334		25.390625
335		31.250000
336		19.531250
337		27.343750
338		15.625000
339		21.484375
340		11.718750
341		17.578125
342		5.859375
343		11.718750
344		0.000000
345		7.812500
346		-5.859375
347		1.953125
348		-9.765625
349		-3.906250
350		-15.625000
351		-7.812500
352		-19.531250
353		-13.671875
354		-25.390625
355		-17.578125
356		-29.296875
357		-23.437500
358		-35.156250
359		-29.296875
360		-41.015625
361		-33.203125
362		-44.921875
363		-37.109375
364		-48.828125
365		-42.968750
366		-52.734375
367		-46.875000
368		-56.640625
369		-50.781250
370		-62.500000
371		-54.687500
372		-66.406250
373		-60.546875
374		-70.312500
375		-64.453125
376		-72.265625
377		-68.359375
378		-78.125000
379		-70.312500
380		-80.078125
381		-74.218750
382		-82.031250
383		-78.125000
384		-85.937500
385		-80.078125
386		-87.890625
387		-83.984375
388		-91.796875
389		-85.937500
390		-91.796875
391		-87.890625
392		-93.750000
393		-89.843750
394		-95.703125
395		-91.796875
396		-97.656250
397		-93.750000
398		-97.656250
399		-93.750000
400		-97.656250
401		-95.703125
402		-99.609375
403		-95.703125
404		-99.609375
405		-95.703125
406		-99.609375
407		-95.703125
408		-97.656250
409		-95.703125
410		-97.656250
411		-95.703125
412		-97.656250
413		-93.750000
414		-97.656250
415		-93.750000
416		-95.703125
417		-91.796875
418		-93.750000
419		-89.843750
420		-91.796875
421		-87.890625
422		-89.843750
423		-85.937500
424		-87.890625
425		-82.031250
426		-83.984375
427		-80.078125
428		-82.031250
429		-76.171875
430		-78.125000
431		-72.265625
432		-74.218750
433		-70.312500
434		-72.265625
435		-66.406250
436		-68.359375
437		-62.500000
438		-64.453125
439		-58.593750
440		-60.546875
441		-54.687500
442		-56.640625
443		-50.781250
444		-50.781250
445		-44.921875
446		-46.875000
447		-39.062500
448		-41.015625
449		-35.156250
450		-37.109375
451		-31.250000
452		-33.203125
453		-25.390625
454		-27.343750
455		-21.484375
456		-21.484375
457		-15.625000
458		-17.578125
459		-11.718750
460		-11.718750
461		-5.859375
462		-7.812500
463		0.000000
464		-1.953125
465		3.906250
466		3.906250
467		9.765625
468		7.812500
469		13.671875
470		11.718750
471		19.531250
472		17.578125
473		23.437500
474		23.437500
475		29.296875
476		27.343750
477		33.203125
478		33.203125
479		39.062500
480		37.109375
481		42.968750
482		41.015625
483		48.828125
484		46.875000
485		52.734375
486		50.781250
487		56.640625
488		54.687500
489		60.546875
490		58.593750
491		64.453125
492		62.500000
493		68.359375
494		66.406250
495		72.265625
496		68.359375
497		74.218750
498		74.218750
499		78.125000
500		76.171875
501		82.031250
502		80.078125
503		83.984375
504		82.031250
505		85.937500
506		85.937500
507		89.843750
508		85.937500
509		91.796875
510		89.843750
511		93.750000
512		91.796875
513		95.703125
514		93.750000
515		97.656250
516		95.703125
517		99.609375
518		97.656250
519		101.562500
520		97.656250
521		101.562500
522		99.609375
523		103.515625
524		99.609375
525		103.515625
526		101.562500
527		103.515625
528		101.562500
529		105.468750
530		101.562500
531		105.468750
532		101.562500
533		105.468750
534		101.562500
535		105.468750
536		99.609375
537		103.515625
538		99.609375
539		103.515625
540		97.656250
541		103.515625
542		99.609375
543		101.562500
544		97.656250
545		99.609375
546		95.703125
547		99.609375
548		93.750000
549		97.656250
550		91.796875
551		95.703125
552		89.843750
553		93.750000
554		87.890625
555		91.796875
556		83.984375
557		89.843750
558		82.031250
559		87.890625
560		78.125000
561		83.984375
562		74.218750
563		82.031250
564		72.265625
565		78.125000
566		68.359375
567		74.218750
568		64.453125
569		70.312500
570		60.546875
571		66.406250
572		56.640625
573		62.500000
574		52.734375
575		58.593750
576		48.828125
577		54.687500
578		44.921875
579		50.781250
580		39.062500
581		46.875000
582		35.156250
583		41.015625
584		31.250000
585		37.109375
586		25.390625
587		31.250000
588		21.484375
589		27.343750
590		15.625000
591		23.437500
592		11.718750
593		17.578125
594		5.859375
595		11.718750
596		0.000000
597		7.812500
598		-3.906250
599		1.953125
600		-9.765625
601		-3.906250
602		-15.625000
603		-7.812500
604		-19.531250
605		-13.671875
606		-25.390625
607		-17.578125
608		-29.296875
609		-23.437500
610		-35.156250
611		-29.296875
612		-41.015625
613		-33.203125
614		-44.921875
615		-39.062500
616		-48.828125
617		-42.968750
618		-52.734375
619		-46.875000
620		-56.640625
621		-52.734375
622		-62.500000
623		-56.640625
624		-66.406250
625		-60.546875
626		-70.312500
627		-64.453125
628		-72.265625
629		-68.359375
630		-76.171875
631		-70.312500
632		-80.078125
633		-74.218750
634		-83.984375
635		-78.125000
636		-85.937500
637		-82.031250
638		-87.890625
639		-83.984375
640		-89.843750
641		-85.937500
642		-91.796875
643		-87.890625
644		-93.750000
645		-89.843750
646		-95.703125
647		-91.796875
648		-97.656250
649		-93.750000
650		-97.656250
651		-93.750000
652		-97.656250
653		-95.703125
654		-99.609375
655		-95.703125
656		-99.609375
657		-95.703125
658		-99.609375
659		-95.703125
660		-97.656250
661		-95.703125
662		-97.656250
663		-95.703125
664		-97.656250
665		-93.750000
666		-95.703125
667		-91.796875
668		-95.703125
669		-91.796875
670		-93.750000
671		-89.843750
672		-91.796875
673		-85.937500
674		-89.843750
675		-83.984375
676		-87.890625
677		-82.031250
678		-83.984375
679		-80.078125
680		-82.031250
681		-76.171875
682		-78.125000
683		-72.265625
684		-76.171875
685		-70.312500
686		-72.265625
687		-64.453125
688		-68.359375
689		-62.500000
690		-64.453125
691		-56.640625
692		-58.593750
693		-54.687500
694		-54.687500
695		-48.828125
696		-50.781250
697		-42.968750
698		-46.875000
699		-41.015625
700		-42.968750
701		-35.156250
702		-37.109375
703		-31.250000
704		-31.250000
705		-25.390625
706		-27.343750
707		-19.531250
708		-21.484375
709		-15.625000
710		-17.578125
711		-9.765625
712		-11.718750
713		-5.859375
714		-7.812500
715		0.000000
716		-1.953125
717		3.906250
718		3.906250
719		9.765625
720		7.812500
721		13.671875
722		13.671875
723		19.531250
724		17.578125
725		25.390625
726		23.437500
727		29.296875
728		27.343750
729		33.203125
730		33.203125
731		39.062500
732		37.109375
733		42.968750
734		41.015625
735		48.828125
736		46.875000
737		52.734375
738		50.781250
739		56.640625
740		54.687500
741		60.546875
742		58.593750
743		64.453125
744		62.500000
745		68.359375
746		66.406250
747		72.265625
748		70.312500
749		76.171875
750		74.218750
751		78.125000
752		76.171875
753		82.031250
754		80.078125
755		83.984375
756		82.031250
757		85.937500
758		85.937500
759		89.843750
760		87.890625
761		91.796875
762		89.843750
763		93.750000
764		91.796875
765		95.703125
766		93.750000
767		97.656250
768		95.703125
769		99.609375
770		97.656250
771		101.562500
772		97.656250
773		103.515625
774		99.609375
775		105.468750
776		101.562500
777		103.515625
778		101.562500
779		103.515625
780		101.562500
781		103.515625
782		101.562500
783		105.468750
784		101.562500
785		105.468750
786		101.562500
787		103.515625
788		99.609375
789		105.468750
790		99.609375
791		103.515625
792		97.656250
793		103.515625
794		97.656250
795		101.562500
796		97.656250
797		101.562500
798		93.750000
799		99.609375
800		91.796875
801		99.609375
802		91.796875
803		97.656250
804		89.843750
805		93.750000
806		85.937500
807		93.750000
808		82.031250
809		89.843750
810		82.031250
811		87.890625
812		78.125000
813		83.984375
814		74.218750
815		80.078125
816		70.312500
817		80.078125
818		68.359375
819		76.171875
820		64.453125
821		72.265625
822		58.593750
823		66.406250
824		54.687500
825		64.453125
826		52.734375
827		60.546875
828		48.828125
829		54.687500
830		44.921875
831		50.781250
832		37.109375
833		46.875000
834		33.203125
835		42.968750
836		29.296875
837		39.062500
838		25.390625
839		33.203125
840		19.531250
841		29.296875
842		13.671875
843		23.437500
844		9.765625
845		19.531250
846		5.859375
847		11.718750
848		-1.953125
849		5.859375
850		-5.859375
851		3.906250
852		-11.718750
853		-1.953125
854		-15.625000
855		-7.812500
856		-21.484375
857		-11.718750
858		-25.390625
859		-15.625000
860		-29.296875
861		-21.484375
862		-35.156250
863		-29.296875
864		-39.062500
865		-33.203125
866		-44.921875
867		-37.109375
868		-50.781250
869		-41.015625
870		-54.687500
871		-46.875000
872		-58.593750
873		-50.781250
874		-64.453125
875		-54.687500
876		-68.359375
877		-58.593750
878		-70.312500
879		-64.453125
880		-72.265625
881		-68.359375
882		-78.125000
883		-70.312500
884		-82.031250
885		-74.218750
886		-83.984375
887		-76.171875
888		-87.890625
889		-80.078125
890		-89.843750
891		-82.031250
892		-91.796875
893		-83.984375
894		-93.750000
895		-85.937500
896		-93.750000
897		-89.843750
898		-95.703125
899		-91.796875
900		-97.656250
901		-91.796875
902		-97.656250
903		-93.750000
904		-99.609375
905		-93.750000
906		-99.609375
907		-93.750000
908		-99.609375
909		-93.750000
910		-99.609375
911		-93.750000
912		-97.656250
913		-95.703125
914		-97.656250
915		-95.703125
916		-99.609375
917		-91.796875
918		-99.609375
919		-89.843750
920		-97.656250
921		-89.843750
922		-95.703125
923		-87.890625
924		-93.750000
925		-83.984375
926		-91.796875
927		-82.031250
928		-87.890625
929		-82.031250
930		-83.984375
931		-78.125000
932		-82.031250
933		-74.218750
934		-80.078125
935		-70.312500
936		-76.171875
937		-68.359375
938		-72.265625
939		-64.453125
940		-68.359375
941		-58.593750
942		-66.406250
943		-56.640625
944		-60.546875
945		-52.734375
946		-54.687500
947		-48.828125
948		-50.781250
949		-44.921875
950		-46.875000
951		-37.109375
952		-42.968750
953		-33.203125
954		-39.062500
955		-29.296875
956		-33.203125
957		-23.437500
958		-29.296875
959		-19.531250
960		-23.437500
961		-13.671875
962		-17.578125
963		-9.765625
964		-11.718750
965		-5.859375
966		-7.812500
967		1.953125
968		-3.906250
969		7.812500
970		1.953125
971		11.718750
972		7.812500
973		15.625000
974		11.718750
975		21.484375
976		15.625000
977		27.343750
978		21.484375
979		29.296875
980		29.296875
981		35.156250
982		33.203125
983		41.015625
984		37.109375
985		46.875000
986		41.015625
987		50.781250
988		44.921875
989		54.687500
990		48.828125
991		58.593750
992		52.734375
993		62.500000
994		56.640625
995		66.406250
996		62.500000
997		68.359375
998		66.406250
999		72.265625
1000		68.359375
1001		76.171875
1002		72.265625
1003		80.078125
1004		74.218750
1005		83.984375
1006		78.125000
1007		85.937500
1008		82.031250
1009		89.843750
1010		82.031250
1011		91.796875
1012		85.937500
1013		91.796875
1014		89.843750
1015		95.703125
1016		91.796875
1017		97.656250
1018		91.796875
1019		101.562500
1020		93.750000
1021		101.562500
1022		95.703125
1023		103.515625
1024		95.703125
1025		103.515625
1026		97.656250
1027		105.468750
1028		99.609375
1029		105.468750
1030		101.562500
1031		103.515625
1032		101.562500
1033		105.468750
1034		99.609375
1035		107.421875
1036		99.609375
1037		107.421875
1038		97.656250
1039		107.421875
1040		99.609375
1041		107.421875
1042		97.656250
1043		105.468750
1044		97.656250
1045		105.468750
1046		99.609375
1047		103.515625
1048		97.656250
1049		99.609375
1050		93.750000
1051		99.609375
1052		91.796875
1053		99.609375
1054		89.843750
1055		97.656250
1056		87.890625
1057		95.703125
1058		85.937500
1059		93.750000
1060		82.031250
1061		91.796875
1062		82.031250
1063		87.890625
1064		78.125000
1065		83.984375
1066		74.218750
1067		80.078125
1068		70.312500
1069		78.125000
1070		66.406250
1071		76.171875
1072		62.500000
1073		72.265625
1074		60.546875
1075		68.359375
1076		54.687500
1077		64.453125
1078		52.734375
1079		60.546875
1080		48.828125
1081		54.687500
1082		44.921875
1083		50.781250
1084		39.062500
1085		46.875000
1086		33.203125
1087		42.968750
1088		27.343750
1089		39.062500
1090		23.437500
1091		33.203125
1092		19.531250
1093		29.296875
1094		13.671875
1095		23.437500
1096		9.765625
1097		17.578125
1098		5.859375
1099		11.718750
1100		-1.953125
1101		5.859375
1102		-7.812500
1103		3.906250
1104		-11.718750
1105		-1.953125
1106		-17.578125
1107		-5.859375
1108		-21.484375
1109		-11.718750
1110		-27.343750
1111		-17.578125
1112		-29.296875
1113		-21.484375
1114		-35.156250
1115		-29.296875
1116		-39.062500
1117		-33.203125
1118		-46.875000
1119		-37.109375
1120		-50.781250
1121		-41.015625
1122		-54.687500
1123		-44.921875
1124		-60.546875
1125		-50.781250
1126		-64.453125
1127		-54.687500
1128		-68.359375
1129		-56.640625
1130		-70.312500
1131		-64.453125
1132		-72.265625
1133		-68.359375
1134		-78.125000
1135		-70.312500
1136		-82.031250
1137		-72.265625
1138		-85.937500
1139		-76.171875
1140		-87.890625
1141		-78.125000
1142		-89.843750
1143		-82.031250
1144		-93.750000
1145		-83.984375
1146		-93.750000
1147		-85.937500
1148		-93.750000
1149		-89.843750
1150		-97.656250
1151		-91.796875
1152		-99.609375
1153		-91.796875
1154		-99.609375
1155		-91.796875
1156		-99.609375
1157		-93.750000
1158		-101.562500
1159		-93.750000
1160		-101.562500
1161		-93.750000
1162		-101.562500
1163		-93.750000
1164		-97.656250
1165		-95.703125
1166		-97.656250
1167		-95.703125
1168		-99.609375
1169		-91.796875
1170		-97.656250
1171		-89.843750
1172		-95.703125
1173		-87.890625
1174		-95.703125
1175		-87.890625
1176		-91.796875
1177		-83.984375
1178		-91.796875
1179		-82.031250
1180		-89.843750
1181		-82.031250
1182		-83.984375
1183		-78.125000
1184		-80.078125
1185		-74.218750
1186		-80.078125
1187		-70.312500
1188		-76.171875
1189		-66.406250
1190		-74.218750
1191		-62.500000
1192		-68.359375
1193		-58.593750
1194		-64.453125
1195		-54.687500
1196		-60.546875
1197		-52.734375
1198		-54.687500
1199		-48.828125
1200		-50.781250
1201		-44.921875
1202		-48.828125
1203		-37.109375
1204		-44.921875
1205		-33.203125
1206		-39.062500
1207		-27.343750
1208		-33.203125
1209		-23.437500
1210		-27.343750
1211		-17.578125
1212		-23.437500
1213		-11.718750
1214		-17.578125
1215		-9.765625
1216		-11.718750
1217		-3.906250
1218		-5.859375
1219		1.953125
1220		-3.906250
1221		7.812500
1222		1.953125
1223		11.718750
1224		5.859375
1225		17.578125
1226		11.718750
1227		23.437500
1228		17.578125
1229		27.343750
1230		21.484375
1231		29.296875
1232		29.296875
1233		35.156250
1234		33.203125
1235		39.062500
1236		35.156250
1237		44.921875
1238		41.015625
1239		50.781250
1240		44.921875
1241		54.687500
1242		48.828125
1243		58.593750
1244		54.687500
1245		62.500000
1246		56.640625
1247		66.406250
1248		62.500000
1249		68.359375
1250		68.359375
1251		72.265625
1252		68.359375
1253		78.125000
1254		70.312500
1255		80.078125
1256		74.218750
1257		83.984375
1258		78.125000
1259		87.890625
1260		80.078125
1261		89.843750
1262		83.984375
1263		93.750000
1264		85.937500
1265		91.796875
1266		89.843750
1267		93.750000
1268		91.796875
1269		99.609375
1270		91.796875
1271		99.609375
1272		93.750000
1273		101.562500
1274		95.703125
1275		103.515625
1276		95.703125
1277		103.515625
1278		97.656250
1279		105.468750
1280		97.656250
1281		105.468750
1282		101.562500
1283		103.515625
1284		101.562500
1285		103.515625
1286		99.609375
1287		107.421875
1288		99.609375
1289		107.421875
1290		99.609375
1291		107.421875
1292		99.609375
1293		105.468750
1294		97.656250
1295		105.468750
1296		97.656250
1297		105.468750
1298		97.656250
1299		101.562500
1300		97.656250
1301		99.609375
1302		93.750000
1303		99.609375
1304		91.796875
1305		99.609375
1306		89.843750
1307		97.656250
1308		87.890625
1309		95.703125
1310		85.937500
1311		93.750000
1312		82.031250
1313		91.796875
1314		80.078125
1315		89.843750
1316		78.125000
1317		83.984375
1318		74.218750
1319		80.078125
1320		70.312500
1321		80.078125
1322		66.406250
1323		76.171875
1324		62.500000
1325		72.265625
1326		58.593750
1327		68.359375
1328		54.687500
1329		64.453125
1330		50.781250
1331		60.546875
1332		48.828125
1333		54.687500
1334		42.968750
1335		50.781250
1336		37.109375
1337		44.921875
1338		31.250000
1339		42.968750
1340		27.343750
1341		37.109375
1342		23.437500
1343		35.156250
1344		19.531250
1345		29.296875
1346		13.671875
1347		25.390625
1348		9.765625
1349		19.531250
1350		5.859375
1351		11.718750
1352		-1.953125
1353		5.859375
1354		-7.812500
1355		3.906250
1356		-11.718750
1357		-1.953125
1358		-17.578125
1359		-7.812500
1360		-23.437500
1361		-11.718750
1362		-27.343750
1363		-17.578125
1364		-31.250000
1365		-21.484375
1366		-35.156250
1367		-29.296875
1368		-41.015625
1369		-33.203125
1370		-46.875000
1371		-37.109375
1372		-50.781250
1373		-41.015625
1374		-56.640625
1375		-44.921875
1376		-60.546875
1377		-50.781250
1378		-64.453125
1379		-54.687500
1380		-68.359375
1381		-58.593750
1382		-70.312500
1383		-62.500000
1384		-74.218750
1385		-68.359375
1386		-80.078125
1387		-72.265625
1388		-82.031250
1389		-74.218750
1390		-83.984375
1391		-76.171875
1392		-87.890625
1393		-80.078125
1394		-89.843750
1395		-82.031250
1396		-91.796875
1397		-83.984375
1398		-93.750000
1399		-85.937500
1400		-93.750000
1401		-89.843750
1402		-95.703125
1403		-91.796875
1404		-99.609375
1405		-91.796875
1406		-99.609375
1407		-91.796875
1408		-101.562500
1409		-93.750000
1410		-101.562500
1411		-93.750000
1412		-101.562500
1413		-93.750000
1414		-101.562500
1415		-93.750000
1416		-97.656250
1417		-95.703125
1418		-97.656250
1419		-93.750000
1420		-99.609375
1421		-91.796875
1422		-97.656250
1423		-89.843750
1424		-95.703125
1425		-89.843750
1426		-95.703125
1427		-87.890625
1428		-93.750000
1429		-83.984375
1430		-89.843750
1431		-82.031250
1432		-87.890625
1433		-82.031250
1434		-83.984375
1435		-78.125000
1436		-80.078125
1437		-74.218750
1438		-78.125000
1439		-70.312500
1440		-76.171875
1441		-66.406250
1442		-72.265625
1443		-62.500000
1444		-68.359375
1445		-58.593750
1446		-64.453125
1447		-54.687500
1448		-60.546875
1449		-52.734375
1450		-54.687500
1451		-48.828125
1452		-50.781250
1453		-42.968750
1454		-46.875000
1455		-37.109375
1456		-42.968750
1457		-33.203125
1458		-37.109375
1459		-27.343750
1460		-33.203125
1461		-23.437500
1462		-27.343750
1463		-17.578125
1464		-23.437500
1465		-11.718750
1466		-17.578125
1467		-9.765625
1468		-11.718750
1469		-3.906250
1470		-5.859375
1471		1.953125
1472		-1.953125
1473		7.812500
1474		1.953125
1475		11.718750
1476		7.812500
1477		17.578125
1478		11.718750
1479		21.484375
1480		15.625000
1481		27.343750
1482		23.437500
1483		31.250000
1484		29.296875
1485		35.156250
1486		33.203125
1487		41.015625
1488		35.156250
1489		44.921875
1490		41.015625
1491		50.781250
1492		44.921875
1493		54.687500
1494		48.828125
1495		58.593750
1496		52.734375
1497		62.500000
1498		56.640625
1499		68.359375
1500		62.500000
1501		68.359375
1502		66.406250
1503		72.265625
1504		70.312500
1505		78.125000
1506		72.265625
1507		80.078125
1508		74.218750
1509		83.984375
1510		78.125000
1511		85.937500
1512		80.078125
1513		89.843750
1514		83.984375
1515		91.796875
1516		85.937500
1517		93.750000
1518		89.843750
1519		93.750000
1520		91.796875
1521		97.656250
1522		91.796875
1523		99.609375
1524		93.750000
1525		101.562500
1526		95.703125
1527		103.515625
1528		97.656250
1529		103.515625
1530		97.656250
1531		105.468750
1532		99.609375
1533		105.468750
1534		101.562500
1535		105.468750
1536		101.562500
1537		105.468750
1538		99.609375
1539		107.421875
1540		99.609375
1541		107.421875
1542		99.609375
1543		107.421875
1544		97.656250
1545		107.421875
1546		97.656250
1547		105.468750
1548		97.656250
1549		105.468750
1550		97.656250
1551		103.515625
1552		97.656250
1553		99.609375
1554		93.750000
1555		99.609375
1556		91.796875
1557		99.609375
1558		89.843750
1559		97.656250
1560		87.890625
1561		95.703125
1562		83.984375
1563		93.750000
1564		82.031250
1565		91.796875
1566		82.031250
1567		87.890625
1568		78.125000
1569		83.984375
1570		76.171875
1571		80.078125
1572		68.359375
1573		78.125000
1574		66.406250
1575		76.171875
1576		62.500000
1577		72.265625
1578		58.593750
1579		68.359375
1580		54.687500
1581		64.453125
1582		50.781250
1583		60.546875
1584		48.828125
1585		54.687500
1586		42.968750
1587		50.781250
1588		37.109375
1589		44.921875
1590		33.203125
1591		42.968750
1592		27.343750
1593		39.062500
1594		23.437500
1595		33.203125
1596		17.578125
1597		27.343750
1598		13.671875
1599		23.437500
1600		9.765625
1601		19.531250
1602		5.859375
1603		11.718750
1604		-1.953125
1605		5.859375
1606		-7.812500
1607		3.906250
1608		-11.718750
1609		-1.953125
1610		-17.578125
1611		-5.859375
1612		-21.484375
1613		-11.718750
1614		-27.343750
1615		-17.578125
1616		-31.250000
1617		-21.484375
1618		-35.156250
1619		-29.296875
1620		-39.062500
1621		-33.203125
1622		-46.875000
1623		-39.062500
1624		-50.781250
1625		-41.015625
1626		-54.687500
1627		-46.875000
1628		-60.546875
1629		-50.781250
1630		-64.453125
1631		-54.687500
1632		-68.359375
1633		-58.593750
1634		-70.312500
1635		-62.500000
1636		-74.218750
1637		-68.359375
1638		-78.125000
1639		-72.265625
1640		-82.031250
1641		-74.218750
1642		-85.937500
1643		-76.171875
1644		-87.890625
1645		-80.078125
1646		-89.843750
1647		-82.031250
1648		-91.796875
1649		-83.984375
1650		-93.750000
1651		-85.937500
1652		-93.750000
1653		-89.843750
1654		-95.703125
1655		-91.796875
1656		-99.609375
1657		-91.796875
1658		-99.609375
1659		-91.796875
1660		-101.562500
1661		-93.750000
1662		-101.562500
1663		-93.750000
1664		-101.562500
1665		-93.750000
1666		-101.562500
1667		-93.750000
1668		-97.656250
1669		-93.750000
1670		-97.656250
1671		-93.750000
1672		-97.656250
1673		-91.796875
1674		-97.656250
1675		-89.843750
1676		-97.656250
1677		-87.890625
1678		-93.750000
1679		-85.937500
1680		-93.750000
1681		-83.984375
1682		-89.843750
1683		-82.031250
1684		-87.890625
1685		-80.078125
1686		-83.984375
1687		-78.125000
1688		-80.078125
1689		-72.265625
1690		-80.078125
1691		-70.312500
1692		-76.171875
1693		-66.406250
1694		-72.265625
1695		-62.500000
1696		-68.359375
1697		-58.593750
1698		-64.453125
1699		-54.687500
1700		-60.546875
1701		-52.734375
1702		-54.687500
1703		-48.828125
1704		-48.828125
1705		-42.968750
1706		-46.875000
1707		-37.109375
1708		-42.968750
1709		-31.250000
1710		-37.109375
1711		-27.343750
1712		-33.203125
1713		-21.484375
1714		-29.296875
1715		-17.578125
1716		-23.437500
1717		-11.718750
1718		-17.578125
1719		-9.765625
1720		-11.718750
1721		-3.906250
1722		-5.859375
1723		1.953125
1724		-1.953125
1725		7.812500
1726		1.953125
1727		13.671875
1728		7.812500
1729		17.578125
1730		13.671875
1731		23.437500
1732		17.578125
1733		27.343750
1734		23.437500
1735		31.250000
1736		29.296875
1737		35.156250
1738		33.203125
1739		39.062500
1740		39.062500
1741		44.921875
1742		41.015625
1743		50.781250
1744		46.875000
1745		54.687500
1746		50.781250
1747		58.593750
1748		54.687500
1749		62.500000
1750		58.593750
1751		66.406250
1752		62.500000
1753		68.359375
1754		66.406250
1755		72.265625
1756		70.312500
1757		78.125000
1758		72.265625
1759		82.031250
1760		74.218750
1761		83.984375
1762		78.125000
1763		87.890625
1764		82.031250
1765		89.843750
1766		83.984375
1767		91.796875
1768		85.937500
1769		93.750000
1770		91.796875
1771		95.703125
1772		91.796875
1773		99.609375
1774		91.796875
1775		101.562500
1776		93.750000
1777		101.562500
1778		95.703125
1779		103.515625
1780		97.656250
1781		103.515625
1782		97.656250
1783		105.468750
1784		99.609375
1785		105.468750
1786		101.562500
1787		105.468750
1788		101.562500
1789		105.468750
1790		99.609375
1791		107.421875
1792		99.609375
1793		107.421875
1794		99.609375
1795		107.421875
1796		99.609375
1797		105.468750
1798		97.656250
1799		105.468750
1800		97.656250
1801		105.468750
1802		97.656250
1803		103.515625
1804		97.656250
1805		99.609375
1806		93.750000
1807		99.609375
1808		91.796875
1809		99.609375
1810		89.843750
1811		97.656250
1812		85.937500
1813		95.703125
1814		83.984375
1815		93.750000
1816		82.031250
1817		91.796875
1818		80.078125
1819		87.890625
1820		78.125000
1821		83.984375
1822		74.218750
1823		80.078125
1824		68.359375
1825		78.125000
1826		66.406250
1827		76.171875
1828		62.500000
1829		72.265625
1830		58.593750
1831		68.359375
1832		54.687500
1833		64.453125
1834		50.781250
1835		60.546875
1836		48.828125
1837		54.687500
1838		44.921875
1839		50.781250
1840		37.109375
1841		44.921875
1842		33.203125
1843		42.968750
1844		27.343750
1845		37.109375
1846		21.484375
1847		33.203125
1848		17.578125
1849		27.343750
1850		11.718750
1851		23.437500
1852		9.765625
1853		17.578125
1854		3.906250
1855		11.718750
1856		-3.906250
1857		5.859375
1858		-7.812500
1859		3.906250
1860		-13.671875
1861		-1.953125
1862		-17.578125
1863		-7.812500
1864		-23.437500
1865		-11.718750
1866		-27.343750
1867		-17.578125
1868		-33.203125
1869		-23.437500
1870		-35.156250
1871		-29.296875
1872		-41.015625
1873		-33.203125
1874		-46.875000
1875		-39.062500
1876		-50.781250
1877		-41.015625
1878		-56.640625
1879		-46.875000
1880		-60.546875
1881		-50.781250
1882		-64.453125
1883		-54.687500
1884		-68.359375
1885		-58.593750
1886		-70.312500
1887		-62.500000
1888		-74.218750
1889		-68.359375
1890		-78.125000
1891		-70.312500
1892		-82.031250
1893		-72.265625
1894		-85.937500
1895		-76.171875
1896		-87.890625
1897		-80.078125
1898		-89.843750
1899		-82.031250
1900		-91.796875
1901		-83.984375
1902		-93.750000
1903		-85.937500
1904		-93.750000
1905		-89.843750
1906		-95.703125
1907		-91.796875
1908		-97.656250
1909		-91.796875
1910		-99.609375
1911		-91.796875
1912		-99.609375
1913		-93.750000
1914		-99.609375
1915		-93.750000
1916		-101.562500
1917		-93.750000
1918		-101.562500
1919		-93.750000
1920		-99.609375
1921		-93.750000
1922		-97.656250
1923		-93.750000
1924		-99.609375
1925		-91.796875
1926		-97.656250
1927		-89.843750
1928		-95.703125
1929		-87.890625
1930		-95.703125
1931		-85.937500
1932		-91.796875
1933		-83.984375
1934		-89.843750
1935		-82.031250
1936		-87.890625
1937		-80.078125
1938		-82.031250
1939		-78.125000
1940		-80.078125
1941		-74.218750
1942		-78.125000
1943		-70.312500
1944		-76.171875
1945		-66.406250
1946		-72.265625
1947		-62.500000
1948		-68.359375
1949		-58.593750
1950		-64.453125
1951		-54.687500
1952		-60.546875
1953		-50.781250
1954		-52.734375
1955		-48.828125
1956		-48.828125
1957		-42.968750
1958		-44.921875
1959		-35.156250
1960		-41.015625
1961		-31.250000
1962		-37.109375
1963		-25.390625
1964		-33.203125
1965		-23.437500
1966		-27.343750
1967		-17.578125
1968		-23.437500
1969		-11.718750
1970		-19.531250
1971		-9.765625
1972		-9.765625
1973		-3.906250
1974		-5.859375
1975		3.906250
1976		-1.953125
1977		7.812500
1978		1.953125
1979		13.671875
1980		7.812500
1981		17.578125
1982		13.671875
1983		23.437500
1984		17.578125
1985		29.296875
1986		23.437500
1987		31.250000
1988		29.296875
1989		35.156250
1990		33.203125
1991		41.015625
1992		37.109375
1993		46.875000
1994		41.015625
1995		50.781250
1996		44.921875
1997		56.640625
1998		48.828125
1999		58.593750
2000		54.687500
2001		62.500000
2002		56.640625
2003		66.406250
2004		62.500000
2005		68.359375
2006		68.359375
2007		72.265625
2008		70.312500
2009		78.125000
2010		72.265625
2011		82.031250
2012		74.218750
2013		83.984375
2014		78.125000
2015		85.937500
2016		82.031250
2017		89.843750
2018		83.984375
2019		93.750000
2020		85.937500
2021		93.750000
2022		91.796875
2023		95.703125
2024		93.750000
2025		95.703125
2026		93.750000
2027		101.562500
2028		93.750000
2029		101.562500
2030		95.703125
2031		103.515625
2032		97.656250
2033		105.468750
2034		97.656250
2035		105.468750
2036		99.609375
2037		105.468750
2038		101.562500
2039		105.468750
2040		101.562500
2041		105.468750
2042		101.562500
2043		107.421875
2044		99.609375
2045		107.421875
2046		99.609375
2047		107.421875
2048		99.609375
2049		105.468750
2050		97.656250
2051		105.468750
2052		97.656250
2053		105.468750
2054		97.656250
2055		103.515625
2056		97.656250
2057		99.609375
2058		93.750000
2059		99.609375
2060		91.796875
2061		99.609375
2062		89.843750
2063		97.656250
2064		87.890625
2065		95.703125
2066		83.984375
2067		93.750000
2068		82.031250
2069		91.796875
2070		80.078125
2071		87.890625
2072		78.125000
2073		83.984375
2074		76.171875
2075		80.078125
2076		70.312500
2077		78.125000
2078		66.406250
2079		74.218750
2080		62.500000
2081		72.265625
2082		58.593750
2083		68.359375
2084		54.687500
2085		64.453125
2086		50.781250
2087		60.546875
2088		48.828125
2089		56.640625
2090		42.968750
2091		48.828125
2092		37.109375
2093		44.921875
2094		33.203125
2095		42.968750
2096		29.296875
2097		37.109375
2098		23.437500
2099		33.203125
2100		17.578125
2101		27.343750
2102		11.718750
2103		23.437500
2104		9.765625
2105		17.578125
2106		5.859375
2107		11.718750
2108		0.000000
2109		5.859375
2110		-7.812500
2111		3.906250
2112		-11.718750
2113		-1.953125
2114		-17.578125
2115		-7.812500
2116		-23.437500
2117		-11.718750
2118		-29.296875
2119		-17.578125
2120		-33.203125
2121		-21.484375
2122		-35.156250
2123		-27.343750
2124		-41.015625
2125		-33.203125
2126		-46.875000
2127		-39.062500
2128		-50.781250
2129		-41.015625
2130		-56.640625
2131		-46.875000
2132		-60.546875
2133		-50.781250
2134		-64.453125
2135		-54.687500
2136		-68.359375
2137		-58.593750
2138		-70.312500
2139		-62.500000
2140		-74.218750
2141		-68.359375
2142		-80.078125
2143		-72.265625
2144		-82.031250
2145		-74.218750
2146		-85.937500
2147		-76.171875
2148		-87.890625
2149		-78.125000
2150		-89.843750
2151		-82.031250
2152		-91.796875
2153		-83.984375
2154		-93.750000
2155		-85.937500
2156		-93.750000
2157		-89.843750
2158		-95.703125
2159		-91.796875
2160		-99.609375
2161		-91.796875
2162		-99.609375
2163		-91.796875
2164		-99.609375
2165		-91.796875
2166		-99.609375
2167		-93.750000
2168		-99.609375
2169		-93.750000
2170		-99.609375
2171		-91.796875
2172		-99.609375
2173		-93.750000
2174		-97.656250
2175		-93.750000
2176		-97.656250
2177		-89.843750
2178		-95.703125
2179		-87.890625
2180		-95.703125
2181		-87.890625
2182		-93.750000
2183		-85.937500
2184		-91.796875
2185		-83.984375
2186		-89.843750
2187		-82.031250
2188		-87.890625
2189		-80.078125
2190		-82.031250
2191		-78.125000
2192		-80.078125
2193		-74.218750
2194		-78.125000
2195		-68.359375
2196		-74.218750
2197		-66.406250
2198		-70.312500
2199		-60.546875
2200		-68.359375
2201		-56.640625
2202		-62.500000
2203		-54.687500
2204		-60.546875
2205		-48.828125
2206		-54.687500
2207		-46.875000
2208		-48.828125
2209		-42.968750
2210		-42.968750
2211		-35.156250
2212		-41.015625
2213		-31.250000
2214		-37.109375
2215		-25.390625
2216		-33.203125
2217		-21.484375
2218		-27.343750
2219		-15.625000
2220		-21.484375
2221		-11.718750
2222		-15.625000
2223		-7.812500
2224		-9.765625
2225		-3.906250
2226		-3.906250
2227		3.906250
2228		-1.953125
2229		7.812500
2230		3.906250
2231		13.671875
2232		9.765625
2233		19.531250
2234		13.671875
2235		23.437500
2236		17.578125
2237		29.296875
2238		23.437500
2239		33.203125
2240		29.296875
2241		37.109375
2242		35.156250
2243		41.015625
2244		39.062500
2245		46.875000
2246		42.968750
2247		50.781250
2248		46.875000
2249		56.640625
2250		50.781250
2251		60.546875
2252		54.687500
2253		64.453125
2254		58.593750
2255		68.359375
2256		62.500000
2257		70.312500
2258		68.359375
2259		74.218750
2260		72.265625
2261		78.125000
2262		72.265625
2263		82.031250
2264		76.171875
2265		85.937500
2266		80.078125
2267		87.890625
2268		82.031250
2269		91.796875
2270		83.984375
2271		93.750000
2272		85.937500
2273		93.750000
2274		91.796875
2275		95.703125
2276		93.750000
2277		99.609375
2278		93.750000
2279		99.609375
2280		93.750000
2281		103.515625
2282		95.703125
2283		103.515625
2284		97.656250
2285		105.468750
2286		99.609375
2287		105.468750
2288		99.609375
2289		107.421875
2290		99.609375
2291		105.468750
2292		103.515625
2293		105.468750
2294		101.562500
2295		107.421875
2296		101.562500
2297		107.421875
2298		99.609375
2299		107.421875
2300		99.609375
2301		107.421875
2302		97.656250
2303		105.468750
2304		97.656250
2305		105.468750
2306		97.656250
2307		103.515625
2308		97.656250
2309		101.562500
2310		95.703125
2311		99.609375
2312		91.796875
2313		99.609375
2314		89.843750
2315		97.656250
2316		87.890625
2317		95.703125
2318		83.984375
2319		93.750000
2320		82.031250
2321		91.796875
2322		80.078125
2323		87.890625
2324		78.125000
2325		83.984375
2326		76.171875
2327		80.078125
2328		68.359375
2329		78.125000
2330		66.406250
2331		76.171875
2332		62.500000
2333		72.265625
2334		60.546875
2335		68.359375
2336		54.687500
2337		64.453125
2338		50.781250
2339		60.546875
2340		48.828125
2341		56.640625
2342		44.921875
2343		50.781250
2344		37.109375
2345		46.875000
2346		33.203125
2347		42.968750
2348		27.343750
2349		39.062500
2350		21.484375
2351		33.203125
2352		17.578125
2353		29.296875
2354		11.718750
2355		23.437500
2356		9.765625
2357		17.578125
2358		5.859375
2359		11.718750
2360		0.000000
2361		5.859375
2362		-5.859375
2363		3.906250
2364		-11.718750
2365		-1.953125
2366		-17.578125
2367		-5.859375
2368		-23.437500
2369		-11.718750
2370		-27.343750
2371		-17.578125
2372		-33.203125
2373		-21.484375
2374		-35.156250
2375		-27.343750
2376		-39.062500
2377		-33.203125
2378		-46.875000
2379		-39.062500
2380		-50.781250
2381		-41.015625
2382		-54.687500
2383		-44.921875
2384		-60.546875
2385		-50.781250
2386		-64.453125
2387		-54.687500
2388		-68.359375
2389		-58.593750
2390		-70.312500
2391		-62.500000
2392		-72.265625
2393		-68.359375
2394		-78.125000
2395		-70.312500
2396		-80.078125
2397		-72.265625
2398		-83.984375
2399		-76.171875
2400		-87.890625
2401		-78.125000
2402		-89.843750
2403		-82.031250
2404		-91.796875
2405		-83.984375
2406		-93.750000
2407		-85.937500
2408		-93.750000
2409		-89.843750
2410		-93.750000
2411		-91.796875
2412		-97.656250
2413		-91.796875
2414		-99.609375
2415		-89.843750
2416		-99.609375
2417		-91.796875
2418		-99.609375
2419		-91.796875
2420		-99.609375
2421		-93.750000
2422		-99.609375
2423		-93.750000
2424		-99.609375
2425		-91.796875
2426		-95.703125
2427		-93.750000
2428		-97.656250
2429		-89.843750
2430		-97.656250
2431		-89.843750
2432		-95.703125
2433		-87.890625
2434		-93.750000
2435		-85.937500
2436		-91.796875
2437		-82.031250
2438		-89.843750
2439		-80.078125
2440		-87.890625
2441		-78.125000
2442		-82.031250
2443		-78.125000
2444		-78.125000
2445		-74.218750
2446		-78.125000
2447		-68.359375
2448		-74.218750
2449		-66.406250
2450		-72.265625
2451		-62.500000
2452		-68.359375
2453		-58.593750
2454		-62.500000
2455		-54.687500
2456		-58.593750
2457		-48.828125
2458		-54.687500
2459		-46.875000
2460		-48.828125
2461		-42.968750
2462		-42.968750
2463		-35.156250
2464		-41.015625
2465		-31.250000
2466		-37.109375
2467		-25.390625
2468		-31.250000
2469		-21.484375
2470		-27.343750
2471		-15.625000
2472		-21.484375
2473		-11.718750
2474		-17.578125
2475		-7.812500
2476		-9.765625
2477		-1.953125
2478		-3.906250
2479		3.906250
2480		0.000000
2481		9.765625
2482		3.906250
2483		13.671875
2484		7.812500
2485		19.531250
2486		13.671875
2487		23.437500
2488		17.578125
2489		27.343750
2490		23.437500
2491		33.203125
2492		31.250000
2493		37.109375
2494		35.156250
2495		41.015625
2496		39.062500
2497		48.828125
2498		42.968750
2499		52.734375
2500		46.875000
2501		56.640625
2502		50.781250
2503		60.546875
2504		54.687500
2505		64.453125
2506		58.593750
2507		68.359375
2508		62.500000
2509		70.312500
2510		68.359375
2511		74.218750
2512		72.265625
2513		78.125000
2514		72.265625
2515		82.031250
2516		76.171875
2517		85.937500
2518		78.125000
2519		87.890625
2520		82.031250
2521		91.796875
2522		85.937500
2523		93.750000
2524		87.890625
2525		95.703125
2526		91.796875
2527		95.703125
2528		93.750000
2529		97.656250
2530		93.750000
2531		101.562500
2532		95.703125
2533		103.515625
2534		97.656250
2535		103.515625
2536		97.656250
2537		105.468750
2538		99.609375
2539		105.468750
2540		99.609375
2541		107.421875
2542		99.609375
2543		107.421875
2544		103.515625
2545		105.468750
2546		101.562500
2547		107.421875
2548		99.609375
2549		107.421875
2550		101.562500
2551		107.421875
2552		99.609375
2553		107.421875
2554		99.609375
2555		105.468750
2556		97.656250
2557		105.468750
2558		97.656250
2559		103.515625
2560		97.656250
2561		101.562500
2562		95.703125
2563		99.609375
2564		91.796875
2565		99.609375
2566		89.843750
2567		99.609375
2568		87.890625
2569		95.703125
2570		85.937500
2571		93.750000
2572		83.984375
2573		91.796875
2574		80.078125
2575		87.890625
2576		78.125000
2577		83.984375
2578		76.171875
2579		82.031250
2580		70.312500
2581		78.125000
2582		66.406250
2583		76.171875
2584		62.500000
2585		72.265625
2586		58.593750
2587		68.359375
2588		54.687500
2589		64.453125
2590		50.781250
2591		60.546875
2592		48.828125
2593		56.640625
2594		44.921875
2595		50.781250
2596		37.109375
2597		46.875000
2598		33.203125
2599		42.968750
2600		29.296875
2601		39.062500
2602		23.437500
2603		33.203125
2604		19.531250
2605		29.296875
2606		13.671875
2607		23.437500
2608		9.765625
2609		17.578125
2610		5.859375
2611		11.718750
2612		0.000000
2613		5.859375
2614		-7.812500
2615		1.953125
2616		-11.718750
2617		-1.953125
2618		-17.578125
2619		-7.812500
2620		-23.437500
2621		-11.718750
2622		-27.343750
2623		-17.578125
2624		-33.203125
2625		-21.484375
2626		-35.156250
2627		-27.343750
2628		-41.015625
2629		-33.203125
2630		-46.875000
2631		-39.062500
2632		-50.781250
2633		-41.015625
2634		-56.640625
2635		-44.921875
2636		-58.593750
2637		-48.828125
2638		-64.453125
2639		-54.687500
2640		-68.359375
2641		-58.593750
2642		-70.312500
2643		-62.500000
2644		-72.265625
2645		-68.359375
2646		-76.171875
2647		-70.312500
2648		-82.031250
2649		-72.265625
2650		-83.984375
2651		-76.171875
2652		-87.890625
2653		-78.125000
2654		-89.843750
2655		-80.078125
2656		-91.796875
2657		-83.984375
2658		-93.750000
2659		-85.937500
2660		-93.750000
2661		-89.843750
2662		-93.750000
2663		-91.796875
2664		-97.656250
2665		-91.796875
2666		-99.609375
2667		-91.796875
2668		-99.609375
2669		-91.796875
2670		-99.609375
2671		-91.796875
2672		-99.609375
2673		-91.796875
2674		-99.609375
2675		-93.750000
2676		-99.609375
2677		-93.750000
2678		-97.656250
2679		-93.750000
2680		-97.656250
2681		-91.796875
2682		-95.703125
2683		-89.843750
2684		-95.703125
2685		-87.890625
2686		-93.750000
2687		-85.937500
2688		-91.796875
2689		-83.984375
2690		-89.843750
2691		-80.078125
2692		-85.937500
2693		-78.125000
2694		-82.031250
2695		-78.125000
2696		-78.125000
2697		-74.218750
2698		-78.125000
2699		-68.359375
2700		-74.218750
2701		-66.406250
2702		-70.312500
2703		-60.546875
2704		-68.359375
2705		-56.640625
2706		-62.500000
2707		-52.734375
2708		-58.593750
2709		-48.828125
2710		-54.687500
2711		-46.875000
2712		-48.828125
2713		-42.968750
2714		-44.921875
2715		-35.156250
2716		-41.015625
2717		-31.250000
2718		-37.109375
2719		-27.343750
2720		-31.250000
2721		-21.484375
2722		-25.390625
2723		-15.625000
2724		-21.484375
2725		-11.718750
2726		-15.625000
2727		-7.812500
2728		-9.765625
2729		-1.953125
2730		-3.906250
2731		1.953125
2732		-1.953125
2733		9.765625
2734		3.906250
2735		15.625000
2736		7.812500
2737		19.531250
2738		13.671875
2739		23.437500
2740		17.578125
2741		29.296875
2742		23.437500
2743		35.156250
2744		29.296875
2745		37.109375
2746		35.156250
2747		41.015625
2748		39.062500
2749		48.828125
2750		41.015625
2751		52.734375
2752		46.875000
2753		54.687500
2754		50.781250
2755		60.546875
2756		54.687500
2757		66.406250
2758		60.546875
2759		68.359375
2760		64.453125
2761		70.312500
2762		68.359375
2763		74.218750
2764		72.265625
2765		80.078125
2766		74.218750
2767		82.031250
2768		76.171875
2769		85.937500
2770		80.078125
2771		87.890625
2772		82.031250
2773		89.843750
2774		83.984375
2775		93.750000
2776		85.937500
2777		95.703125
2778		91.796875
2779		95.703125
2780		93.750000
2781		97.656250
2782		93.750000
2783		101.562500
2784		95.703125
2785		103.515625
2786		95.703125
2787		103.515625
2788		97.656250
2789		105.468750
2790		97.656250
2791		105.468750
2792		99.609375
2793		107.421875
2794		99.609375
2795		107.421875
2796		103.515625
2797		105.468750
2798		99.609375
2799		107.421875
2800		99.609375
2801		107.421875
2802		99.609375
2803		107.421875
2804		99.609375
2805		107.421875
2806		97.656250
2807		105.468750
2808		97.656250
2809		105.468750
2810		97.656250
2811		103.515625
2812		97.656250
2813		101.562500
2814		95.703125
2815		99.609375
2816		91.796875
2817		99.609375
2818		89.843750
2819		97.656250
2820		85.937500
2821		95.703125
2822		83.984375
2823		91.796875
2824		82.031250
2825		91.796875
2826		80.078125
2827		87.890625
2828		78.125000
2829		83.984375
2830		76.171875
2831		80.078125
2832		70.312500
2833		78.125000
2834		66.406250
2835		76.171875
2836		62.500000
2837		72.265625
2838		58.593750
2839		66.406250
2840		54.687500
2841		64.453125
2842		50.781250
2843		60.546875
2844		48.828125
2845		56.640625
2846		42.968750
2847		48.828125
2848		37.109375
2849		44.921875
2850		31.250000
2851		42.968750
2852		27.343750
2853		37.109375
2854		23.437500
2855		33.203125
2856		17.578125
2857		27.343750
2858		11.718750
2859		23.437500
2860		7.812500
2861		17.578125
2862		3.906250
2863		11.718750
2864		0.000000
2865		5.859375
2866		-5.859375
2867		1.953125
2868		-11.718750
2869		-1.953125
2870		-17.578125
2871		-7.812500
2872		-23.437500
2873		-11.718750
2874		-27.343750
2875		-17.578125
2876		-33.203125
2877		-21.484375
2878		-35.156250
2879		-27.343750
2880		-41.015625
2881		-35.156250
2882		-46.875000
2883		-39.062500
2884		-52.734375
2885		-41.015625
2886		-56.640625
2887		-46.875000
2888		-60.546875
2889		-50.781250
2890		-64.453125
2891		-54.687500
2892		-68.359375
2893		-58.593750
2894		-72.265625
2895		-62.500000
2896		-74.218750
2897		-68.359375
2898		-76.171875
2899		-72.265625
2900		-82.031250
2901		-72.265625
2902		-85.937500
2903		-76.171875
2904		-87.890625
2905		-78.125000
2906		-89.843750
2907		-82.031250
2908		-91.796875
2909		-83.984375
2910		-93.750000
2911		-85.937500
2912		-95.703125
2913		-87.890625
2914		-95.703125
2915		-91.796875
2916		-99.609375
2917		-91.796875
2918		-99.609375
2919		-91.796875
2920		-99.609375
2921		-91.796875
2922		-99.609375
2923		-93.750000
2924		-101.562500
2925		-93.750000
2926		-99.609375
2927		-93.750000
2928		-99.609375
2929		-91.796875
2930		-97.656250
2931		-93.750000
2932		-95.703125
2933		-91.796875
2934		-97.656250
2935		-89.843750
2936		-95.703125
2937		-87.890625
2938		-93.750000
2939		-85.937500
2940		-91.796875
2941		-83.984375
2942		-89.843750
2943		-82.031250
2944		-87.890625
2945		-80.078125
2946		-82.031250
2947		-78.125000
2948		-78.125000
2949		-74.218750
2950		-76.171875
2951		-68.359375
2952		-74.218750
2953		-66.406250
2954		-72.265625
2955		-62.500000
2956		-68.359375
2957		-58.593750
2958		-64.453125
2959		-52.734375
2960		-58.593750
2961		-48.828125
2962		-54.687500
2963		-46.875000
2964		-48.828125
2965		-42.968750
2966		-42.968750
2967		-35.156250
2968		-41.015625
2969		-31.250000
2970		-35.156250
2971		-27.343750
2972		-31.250000
2973		-19.531250
2974		-27.343750
2975		-15.625000
2976		-21.484375
2977		-9.765625
2978		-15.625000
2979		-7.812500
2980		-9.765625
2981		-1.953125
2982		-3.906250
2983		1.953125
2984		-1.953125
2985		9.765625
2986		3.906250
2987		13.671875
2988		7.812500
2989		19.531250
2990		13.671875
2991		23.437500
2992		19.531250
2993		29.296875
2994		23.437500
2995		35.156250
2996		27.343750
2997		37.109375
2998		35.156250
2999		41.015625
3000		39.062500
3001		48.828125
3002		42.968750
3003		52.734375
3004		46.875000
3005		56.640625
3006		50.781250
3007		60.546875
3008		52.734375
3009		64.453125
3010		58.593750
3011		68.359375
3012		62.500000
3013		70.312500
3014		68.359375
3015		74.218750
3016		72.265625
3017		80.078125
3018		72.265625
3019		82.031250
3020		76.171875
3021		85.937500
3022		80.078125
3023		87.890625
3024		82.031250
3025		91.796875
3026		83.984375
3027		93.750000
3028		87.890625
3029		95.703125
3030		91.796875
3031		95.703125
3032		93.750000
3033		97.656250
3034		93.750000
3035		101.562500
3036		95.703125
3037		101.562500
3038		95.703125
3039		103.515625
3040		97.656250
3041		103.515625
3042		97.656250
3043		105.468750
3044		99.609375
3045		105.468750
3046		99.609375
3047		107.421875
3048		101.562500
3049		105.468750
3050		101.562500
3051		107.421875
3052		99.609375
3053		107.421875
3054		99.609375
3055		107.421875
3056		99.609375
3057		105.468750
3058		97.656250
3059		105.468750
3060		97.656250
3061		105.468750
3062		95.703125
3063		103.515625
3064		97.656250
3065		99.609375
3066		95.703125
3067		99.609375
3068		91.796875
3069		99.609375
3070		89.843750
3071		97.656250
3072		87.890625
3073		95.703125
3074		83.984375
3075		93.750000
3076		82.031250
3077		89.843750
3078		80.078125
3079		87.890625
3080		78.125000
3081		83.984375
3082		74.218750
3083		80.078125
3084		68.359375
3085		76.171875
3086		64.453125
3087		74.218750
3088		62.500000
3089		70.312500
3090		58.593750
3091		68.359375
3092		54.687500
3093		64.453125
3094		50.781250
3095		58.593750
3096		46.875000
3097		56.640625
3098		42.968750
3099		48.828125
3100		35.156250
3101		44.921875
3102		31.250000
3103		41.015625
3104		27.343750
3105		37.109375
3106		23.437500
3107		31.250000
3108		17.578125
3109		27.343750
3110		11.718750
3111		21.484375
3112		5.859375
3113		17.578125
3114		3.906250
3115		9.765625
3116		-1.953125
3117		5.859375
3118		-7.812500
3119		1.953125
3120		-13.671875
3121		-3.906250
3122		-17.578125
3123		-7.812500
3124		-23.437500
3125		-13.671875
3126		-27.343750
3127		-17.578125
3128		-33.203125
3129		-23.437500
3130		-37.109375
3131		-27.343750
3132		-41.015625
3133		-35.156250
3134		-48.828125
3135		-39.062500
3136		-50.781250
3137		-42.968750
3138		-56.640625
3139		-46.875000
3140		-60.546875
3141		-50.781250
3142		-66.406250
3143		-54.687500
3144		-68.359375
3145		-60.546875
3146		-70.312500
3147		-64.453125
3148		-74.218750
3149		-68.359375
3150		-78.125000
3151		-72.265625
3152		-83.984375
3153		-74.218750
3154		-85.937500
3155		-76.171875
3156		-87.890625
3157		-80.078125
3158		-91.796875
3159		-82.031250
3160		-93.750000
3161		-83.984375
3162		-95.703125
3163		-85.937500
3164		-93.750000
3165		-87.890625
3166		-95.703125
3167		-91.796875
3168		-99.609375
3169		-91.796875
3170		-99.609375
3171		-91.796875
3172		-101.562500
3173		-93.750000
3174		-101.562500
3175		-93.750000
3176		-101.562500
3177		-93.750000
3178		-101.562500
3179		-93.750000
3180		-101.562500
3181		-93.750000
3182		-97.656250
3183		-93.750000
3184		-95.703125
3185		-91.796875
3186		-97.656250
3187		-89.843750
3188		-95.703125
3189		-87.890625
3190		-93.750000
3191		-85.937500
3192		-91.796875
3193		-83.984375
3194		-89.843750
3195		-82.031250
3196		-87.890625
3197		-78.125000
3198		-82.031250
3199		-78.125000
3200		-80.078125
3201		-74.218750
3202		-78.125000
3203		-68.359375
3204		-76.171875
3205		-66.406250
3206		-72.265625
3207		-62.500000
3208		-68.359375
3209		-58.593750
3210		-62.500000
3211		-54.687500
3212		-60.546875
3213		-50.781250
3214		-56.640625
3215		-46.875000
3216		-48.828125
3217		-42.968750
3218		-42.968750
3219		-35.156250
3220		-42.968750
3221		-31.250000
3222		-37.109375
3223		-25.390625
3224		-31.250000
3225		-21.484375
3226		-27.343750
3227		-15.625000
3228		-21.484375
3229		-11.718750
3230		-15.625000
3231		-7.812500
3232		-9.765625
3233		-1.953125
3234		-3.906250
3235		1.953125
3236		0.000000
3237		9.765625
3238		3.906250
3239		13.671875
3240		7.812500
3241		19.531250
3242		13.671875
3243		23.437500
3244		17.578125
3245		29.296875
3246		23.437500
3247		35.156250
3248		27.343750
3249		37.109375
3250		35.156250
3251		41.015625
3252		39.062500
3253		46.875000
3254		42.968750
3255		50.781250
3256		46.875000
3257		56.640625
3258		50.781250
3259		60.546875
3260		54.687500
3261		64.453125
3262		58.593750
3263		68.359375
3264		62.500000
3265		70.312500
3266		68.359375
3267		74.218750
3268		72.265625
3269		78.125000
3270		74.218750
3271		82.031250
3272		76.171875
3273		85.937500
3274		80.078125
3275		87.890625
3276		82.031250
3277		89.843750
3278		83.984375
3279		91.796875
3280		85.937500
3281		95.703125
3282		91.796875
3283		95.703125
3284		93.750000
3285		97.656250
3286		93.750000
3287		99.609375
3288		93.750000
3289		101.562500
3290		95.703125
3291		103.515625
3292		97.656250
3293		103.515625
3294		97.656250
3295		105.468750
3296		97.656250
3297		105.468750
3298		99.609375
3299		105.468750
3300		101.562500
3301		103.515625
3302		101.562500
3303		107.421875
3304		99.609375
3305		107.421875
3306		99.609375
3307		105.468750
3308		97.656250
3309		105.468750
3310		97.656250
3311		105.468750
3312		97.656250
3313		105.468750
3314		95.703125
3315		103.515625
3316		95.703125
3317		99.609375
3318		95.703125
3319		97.656250
3320		91.796875
3321		97.656250
3322		87.890625
3323		97.656250
3324		85.937500
3325		95.703125
3326		83.984375
3327		91.796875
3328		82.031250
3329		89.843750
3330		78.125000
3331		87.890625
3332		78.125000
3333		83.984375
3334		74.218750
3335		80.078125
3336		68.359375
3337		76.171875
3338		64.453125
3339		74.218750
3340		62.500000
3341		72.265625
3342		58.593750
3343		66.406250
3344		52.734375
3345		62.500000
3346		48.828125
3347		58.593750
3348		46.875000
3349		54.687500
3350		42.968750
3351		48.828125
3352		37.109375
3353		42.968750
3354		31.250000
3355		41.015625
3356		27.343750
3357		37.109375
3358		21.484375
3359		31.250000
3360		15.625000
3361		27.343750
3362		11.718750
3363		21.484375
3364		7.812500
3365		17.578125
3366		3.906250
3367		11.718750
3368		-1.953125
3369		5.859375
3370		-9.765625
3371		0.000000
3372		-13.671875
3373		-3.906250
3374		-19.531250
3375		-9.765625
3376		-23.437500
3377		-13.671875
3378		-29.296875
3379		-17.578125
3380		-33.203125
3381		-23.437500
3382		-37.109375
3383		-29.296875
3384		-41.015625
3385		-35.156250
3386		-46.875000
3387		-41.015625
3388		-52.734375
3389		-42.968750
3390		-56.640625
3391		-46.875000
3392		-62.500000
3393		-52.734375
3394		-66.406250
3395		-54.687500
3396		-68.359375
3397		-60.546875
3398		-72.265625
3399		-64.453125
3400		-74.218750
3401		-70.312500
3402		-78.125000
3403		-72.265625
3404		-82.031250
3405		-76.171875
3406		-85.937500
3407		-78.125000
3408		-87.890625
3409		-80.078125
3410		-91.796875
3411		-82.031250
3412		-93.750000
3413		-83.984375
3414		-95.703125
3415		-87.890625
3416		-95.703125
3417		-87.890625
3418		-95.703125
3419		-93.750000
3420		-97.656250
3421		-93.750000
3422		-99.609375
3423		-93.750000
3424		-99.609375
3425		-93.750000
3426		-99.609375
3427		-95.703125
3428		-99.609375
3429		-93.750000
3430		-99.609375
3431		-95.703125
3432		-99.609375
3433		-93.750000
3434		-97.656250
3435		-95.703125
3436		-97.656250
3437		-93.750000
3438		-97.656250
3439		-89.843750
3440		-95.703125
3441		-87.890625
3442		-93.750000
3443		-85.937500
3444		-93.750000
3445		-83.984375
3446		-89.843750
3447		-82.031250
3448		-87.890625
3449		-78.125000
3450		-85.937500
3451		-78.125000
3452		-80.078125
3453		-74.218750
3454		-76.171875
3455		-70.312500
3456		-76.171875
3457		-66.406250
3458		-72.265625
3459		-62.500000
3460		-68.359375
3461		-58.593750
3462		-64.453125
3463		-54.687500
3464		-60.546875
3465		-50.781250
3466		-56.640625
3467		-46.875000
3468		-48.828125
3469		-42.968750
3470		-44.921875
3471		-37.109375
3472		-41.015625
3473		-31.250000
3474		-37.109375
3475		-25.390625
3476		-31.250000
3477		-21.484375
3478		-27.343750
3479		-15.625000
3480		-21.484375
3481		-11.718750
3482		-17.578125
3483		-5.859375
3484		-9.765625
3485		-3.906250
3486		-3.906250
3487		1.953125
3488		0.000000
3489		9.765625
3490		1.953125
3491		13.671875
3492		7.812500
3493		17.578125
3494		13.671875
3495		23.437500
3496		19.531250
3497		27.343750
3498		23.437500
3499		33.203125
3500		27.343750
3501		37.109375
3502		35.156250
3503		41.015625
3504		39.062500
3505		46.875000
3506		42.968750
3507		50.781250
3508		46.875000
3509		56.640625
3510		50.781250
3511		60.546875
3512		54.687500
3513		64.453125
3514		58.593750
3515		68.359375
3516		62.500000
3517		70.312500
3518		68.359375
3519		72.265625
3520		72.265625
3521		76.171875
3522		72.265625
3523		82.031250
3524		76.171875
3525		83.984375
3526		78.125000
3527		87.890625
3528		82.031250
3529		89.843750
3530		83.984375
3531		93.750000
3532		85.937500
3533		95.703125
3534		87.890625
3535		95.703125
3536		93.750000
3537		95.703125
3538		93.750000
3539		99.609375
3540		93.750000
3541		101.562500
3542		95.703125
3543		103.515625
3544		95.703125
3545		103.515625
3546		97.656250
3547		105.468750
3548		97.656250
3549		105.468750
3550		99.609375
3551		105.468750
3552		101.562500
3553		103.515625
3554		101.562500
3555		105.468750
3556		99.609375
3557		107.421875
3558		99.609375
3559		105.468750
3560		97.656250
3561		105.468750
3562		97.656250
3563		105.468750
3564		97.656250
3565		103.515625
3566		95.703125
3567		103.515625
3568		95.703125
3569		99.609375
3570		95.703125
3571		97.656250
3572		89.843750
3573		97.656250
3574		89.843750
3575		95.703125
3576		85.937500
3577		93.750000
3578		83.984375
3579		91.796875
3580		82.031250
3581		89.843750
3582		78.125000
3583		87.890625
3584		78.125000
3585		83.984375
3586		74.218750
3587		78.125000
3588		68.359375
3589		76.171875
3590		64.453125
3591		74.218750
3592		60.546875
3593		70.312500
3594		58.593750
3595		66.406250
3596		52.734375
3597		62.500000
3598		48.828125
3599		58.593750
3600		46.875000
3601		54.687500
3602		42.968750
3603		48.828125
3604		37.109375
3605		42.968750
3606		31.250000
3607		41.015625
3608		25.390625
3609		37.109375
3610		21.484375
3611		31.250000
3612		15.625000
3613		27.343750
3614		11.718750
3615		21.484375
3616		5.859375
3617		15.625000
3618		1.953125
3619		11.718750
3620		-1.953125
3621		3.906250
3622		-9.765625
3623		0.000000
3624		-13.671875
3625		-3.906250
3626		-19.531250
3627		-7.812500
3628		-23.437500
3629		-13.671875
3630		-29.296875
3631		-19.531250
3632		-35.156250
3633		-23.437500
3634		-37.109375
3635		-29.296875
3636		-41.015625
3637		-35.156250
3638		-46.875000
3639		-41.015625
3640		-52.734375
3641		-42.968750
3642		-56.640625
3643		-46.875000
3644		-62.500000
3645		-50.781250
3646		-66.406250
3647		-56.640625
3648		-68.359375
3649		-60.546875
3650		-74.218750
3651		-64.453125
3652		-74.218750
3653		-70.312500
3654		-78.125000
3655		-72.265625
3656		-83.984375
3657		-76.171875
3658		-85.937500
3659		-78.125000
3660		-89.843750
3661		-80.078125
3662		-91.796875
3663		-82.031250
3664		-93.750000
3665		-85.937500
3666		-95.703125
3667		-87.890625
3668		-95.703125
3669		-89.843750
3670		-95.703125
3671		-93.750000
3672		-99.609375
3673		-91.796875
3674		-101.562500
3675		-93.750000
3676		-101.562500
3677		-93.750000
3678		-101.562500
3679		-93.750000
3680		-101.562500
3681		-93.750000
3682		-101.562500
3683		-93.750000
3684		-101.562500
3685		-93.750000
3686		-97.656250
3687		-95.703125
3688		-97.656250
3689		-93.750000
3690		-97.656250
3691		-89.843750
3692		-95.703125
3693		-87.890625
3694		-93.750000
3695		-87.890625
3696		-93.750000
3697		-83.984375
3698		-89.843750
3699		-82.031250
3700		-87.890625
3701		-80.078125
3702		-83.984375
3703		-78.125000
3704		-80.078125
3705		-74.218750
3706		-76.171875
3707		-68.359375
3708		-76.171875
3709		-66.406250
3710		-70.312500
3711		-62.500000
3712		-68.359375
3713		-58.593750
3714		-64.453125
3715		-54.687500
3716		-60.546875
3717		-48.828125
3718		-56.640625
3719		-46.875000
3720		-48.828125
3721		-42.968750
3722		-44.921875
3723		-37.109375
3724		-41.015625
3725		-31.250000
3726		-35.156250
3727		-27.343750
3728		-31.250000
3729		-21.484375
3730		-27.343750
3731		-15.625000
3732		-21.484375
3733		-11.718750
3734		-17.578125
3735		-5.859375
3736		-9.765625
3737		-1.953125
3738		-3.906250
3739		1.953125
3740		0.000000
3741		9.765625
3742		3.906250
3743		13.671875
3744		7.812500
3745		19.531250
3746		13.671875
3747		25.390625
3748		17.578125
3749		29.296875
3750		23.437500
3751		33.203125
3752		27.343750
3753		37.109375
3754		35.156250
3755		41.015625
3756		39.062500
3757		48.828125
3758		42.968750
3759		50.781250
3760		46.875000
3761		56.640625
3762		50.781250
3763		60.546875
3764		54.687500
3765		64.453125
3766		58.593750
3767		66.406250
3768		62.500000
3769		70.312500
3770		68.359375
3771		72.265625
3772		72.265625
3773		76.171875
3774		72.265625
3775		82.031250
3776		76.171875
3777		83.984375
3778		80.078125
3779		87.890625
3780		82.031250
3781		89.843750
3782		83.984375
3783		93.750000
3784		85.937500
3785		93.750000
3786		89.843750
3787		95.703125
3788		93.750000
3789		97.656250
3790		93.750000
3791		101.562500
3792		93.750000
3793		101.562500
3794		95.703125
3795		103.515625
3796		97.656250
3797		103.515625
3798		97.656250
3799		105.468750
3800		97.656250
3801		105.468750
3802		99.609375
3803		105.468750
3804		101.562500
3805		103.515625
3806		101.562500
3807		103.515625
3808		99.609375
3809		105.468750
3810		99.609375
3811		105.468750
3812		97.656250
3813		105.468750
3814		97.656250
3815		103.515625
3816		95.703125
3817		103.515625
3818		95.703125
3819		103.515625
3820		95.703125
3821		99.609375
3822		93.750000
3823		97.656250
3824		89.843750
3825		97.656250
3826		87.890625
3827		95.703125
3828		83.984375
3829		93.750000
3830		83.984375
3831		91.796875
3832		80.078125
3833		89.843750
3834		78.125000
3835		85.937500
3836		76.171875
3837		83.984375
3838		74.218750
3839		80.078125
3840		68.359375
3841		74.218750
3842		64.453125
3843		74.218750
3844		60.546875
3845		70.312500
3846		56.640625
3847		66.406250
3848		52.734375
3849		62.500000
3850		46.875000
3851		58.593750
3852		44.921875
3853		52.734375
3854		41.015625
3855		46.875000
3856		37.109375
3857		42.968750
3858		31.250000
3859		39.062500
3860		25.390625
3861		35.156250
3862		19.531250
3863		31.250000
3864		15.625000
3865		25.390625
3866		9.765625
3867		21.484375
3868		5.859375
3869		15.625000
3870		1.953125
3871		9.765625
3872		-1.953125
3873		3.906250
3874		-9.765625
3875		-1.953125
3876		-15.625000
3877		-3.906250
3878		-21.484375
3879		-9.765625
3880		-25.390625
3881		-15.625000
3882		-31.250000
3883		-19.531250
3884		-35.156250
3885		-25.390625
3886		-39.062500
3887		-29.296875
3888		-42.968750
3889		-37.109375
3890		-46.875000
3891		-41.015625
3892		-54.687500
3893		-44.921875
3894		-58.593750
3895		-48.828125
3896		-62.500000
3897		-52.734375
3898		-66.406250
3899		-58.593750
3900		-70.312500
3901		-60.546875
3902		-74.218750
3903		-64.453125
3904		-76.171875
3905		-70.312500
3906		-78.125000
3907		-74.218750
3908		-83.984375
3909		-76.171875
3910		-87.890625
3911		-78.125000
3912		-89.843750
3913		-82.031250
3914		-93.750000
3915		-83.984375
3916		-93.750000
3917		-85.937500
3918		-95.703125
3919		-87.890625
3920		-97.656250
3921		-89.843750
3922		-97.656250
3923		-93.750000
3924		-99.609375
3925		-93.750000
3926		-101.562500
3927		-93.750000
3928		-101.562500
3929		-93.750000
3930		-101.562500
3931		-95.703125
3932		-101.562500
3933		-95.703125
3934		-101.562500
3935		-93.750000
3936		-101.562500
3937		-93.750000
3938		-97.656250
3939		-95.703125
3940		-97.656250
3941		-93.750000
3942		-97.656250
3943		-89.843750
3944		-97.656250
3945		-87.890625
3946		-95.703125
3947		-87.890625
3948		-93.750000
3949		-83.984375
3950		-91.796875
3951		-82.031250
3952		-87.890625
3953		-80.078125
3954		-85.937500
3955		-78.125000
3956		-80.078125
3957		-76.171875
3958		-78.125000
3959		-70.312500
3960		-76.171875
3961		-66.406250
3962		-72.265625
3963		-62.500000
3964		-68.359375
3965		-58.593750
3966		-64.453125
3967		-54.687500
3968		-60.546875
3969		-50.781250
3970		-56.640625
3971		-46.875000
3972		-48.828125
3973		-42.968750
3974		-44.921875
3975		-39.062500
3976		-41.015625
3977		-31.250000
3978		-39.062500
3979		-27.343750
3980		-33.203125
3981		-21.484375
3982		-27.343750
3983		-15.625000
3984		-21.484375
3985		-11.718750
3986		-15.625000
3987		-7.812500
3988		-11.718750
3989		-3.906250
3990		-5.859375
3991		1.953125
3992		0.000000
3993		7.812500
3994		1.953125
3995		13.671875
3996		5.859375
3997		19.531250
3998		11.718750
3999		23.437500
4000		17.578125
4001		29.296875
4002		23.437500
4003		33.203125
4004		27.343750
4005		35.156250
4006		35.156250
4007		41.015625
4008		39.062500
4009		44.921875
4010		41.015625
4011		50.781250
4012		44.921875
4013		56.640625
4014		48.828125
4015		58.593750
4016		54.687500
4017		64.453125
4018		58.593750
4019		68.359375
4020		62.500000
4021		70.312500
4022		68.359375
4023		72.265625
4024		72.265625
4025		76.171875
4026		72.265625
4027		80.078125
4028		76.171875
4029		83.984375
4030		78.125000
4031		87.890625
4032		80.078125
4033		89.843750
4034		83.984375
4035		91.796875
4036		85.937500
4037		95.703125
4038		87.890625
4039		95.703125
4040		91.796875
4041		95.703125
4042		93.750000
4043		99.609375
4044		93.750000
4045		101.562500
4046		95.703125
4047		103.515625
4048		95.703125
4049		103.515625
4050		97.656250
4051		105.468750
4052		97.656250
4053		105.468750
4054		97.656250
4055		105.468750
4056		101.562500
4057		103.515625
4058		101.562500
4059		103.515625
4060		99.609375
4061		105.468750
4062		99.609375
4063		105.468750
4064		97.656250
4065		105.468750
4066		97.656250
4067		103.515625
4068		95.703125
4069		103.515625
4070		93.750000
4071		101.562500
4072		95.703125
4073		99.609375
4074		93.750000
4075		97.656250
4076		89.843750
4077		97.656250
4078		87.890625
4079		95.703125
4080		85.937500
4081		93.750000
4082		82.031250
4083		91.796875
4084		80.078125
4085		89.843750
4086		78.125000
4087		85.937500
4088		76.171875
4089		83.984375
4090		72.265625
4091		78.125000
4092		68.359375
4093		74.218750
4094		64.453125
4095		72.265625
4096		60.546875
4097		70.312500
4098		56.640625
4099		66.406250
4100		52.734375
4101		60.546875
4102		46.875000
4103		58.593750
4104		42.968750
4105		52.734375
4106		41.015625
4107		46.875000
4108		35.156250
4109		42.968750
4110		29.296875
4111		39.062500
4112		25.390625
4113		35.156250
4114		19.531250
4115		31.250000
4116		15.625000
4117		25.390625
4118		9.765625
4119		19.531250
4120		3.906250
4121		15.625000
4122		1.953125
4123		9.765625
4124		-3.906250
4125		3.906250
4126		-9.765625
4127		-1.953125
4128		-15.625000
4129		-3.906250
4130		-19.531250
4131		-11.718750
4132		-25.390625
4133		-15.625000
4134		-31.250000
4135		-21.484375
4136		-35.156250
4137		-25.390625
4138		-39.062500
4139		-31.250000
4140		-42.968750
4141		-37.109375
4142		-46.875000
4143		-41.015625
4144		-54.687500
4145		-44.921875
4146		-58.593750
4147		-48.828125
4148		-62.500000
4149		-52.734375
4150		-66.406250
4151		-58.593750
4152		-72.265625
4153		-62.500000
4154		-74.218750
4155		-64.453125
4156		-76.171875
4157		-68.359375
4158		-80.078125
4159		-74.218750
4160		-83.984375
4161		-76.171875
4162		-87.890625
4163		-80.078125
4164		-89.843750
4165		-82.031250
4166		-91.796875
4167		-83.984375
4168		-93.750000
4169		-85.937500
4170		-95.703125
4171		-87.890625
4172		-97.656250
4173		-89.843750
4174		-97.656250
4175		-93.750000
4176		-99.609375
4177		-95.703125
4178		-101.562500
4179		-93.750000
4180		-101.562500
4181		-95.703125
4182		-103.515625
4183		-95.703125
4184		-103.515625
4185		-95.703125
4186		-103.515625
4187		-95.703125
4188		-101.562500
4189		-93.750000
4190		-97.656250
4191		-95.703125
4192		-97.656250
4193		-93.750000
4194		-97.656250
4195		-91.796875
4196		-97.656250
4197		-89.843750
4198		-95.703125
4199		-87.890625
4200		-93.750000
4201		-85.937500
4202		-91.796875
4203		-82.031250
4204		-89.843750
4205		-80.078125
4206		-85.937500
4207		-78.125000
4208		-80.078125
4209		-76.171875
4210		-78.125000
4211		-70.312500
4212		-76.171875
4213		-66.406250
4214		-72.265625
4215		-62.500000
4216		-68.359375
4217		-58.593750
4218		-64.453125
4219		-54.687500
4220		-60.546875
4221		-50.781250
4222		-54.687500
4223		-46.875000
4224		-48.828125
4225		-42.968750
4226		-44.921875
4227		-39.062500
4228		-41.015625
4229		-33.203125
4230		-37.109375
4231		-27.343750
4232		-31.250000
4233		-21.484375
4234		-27.343750
4235		-17.578125
4236		-23.437500
4237		-11.718750
4238		-17.578125
4239		-7.812500
4240		-11.718750
4241		-3.906250
4242		-5.859375
4243		1.953125
4244		0.000000
4245		7.812500
4246		3.906250
4247		13.671875
4248		7.812500
4249		17.578125
4250		13.671875
4251		23.437500
4252		17.578125
4253		27.343750
4254		23.437500
4255		33.203125
4256		27.343750
4257		37.109375
4258		35.156250
4259		41.015625
4260		39.062500
4261		44.921875
4262		42.968750
4263		50.781250
4264		46.875000
4265		54.687500
4266		50.781250
4267		58.593750
4268		54.687500
4269		62.500000
4270		58.593750
4271		66.406250
4272		62.500000
4273		70.312500
4274		68.359375
4275		72.265625
4276		72.265625
4277		76.171875
4278		74.218750
4279		80.078125
4280		76.171875
4281		83.984375
4282		78.125000
4283		87.890625
4284		82.031250
4285		89.843750
4286		83.984375
4287		89.843750
4288		87.890625
4289		93.750000
4290		87.890625
4291		95.703125
4292		91.796875
4293		95.703125
4294		93.750000
4295		99.609375
4296		93.750000
4297		101.562500
4298		95.703125
4299		103.515625
4300		95.703125
4301		103.515625
4302		97.656250
4303		103.515625
4304		99.609375
4305		103.515625
4306		99.609375
4307		103.515625
4308		101.562500
4309		103.515625
4310		101.562500
4311		103.515625
4312		99.609375
4313		105.468750
4314		99.609375
4315		105.468750
4316		97.656250
4317		105.468750
4318		97.656250
4319		103.515625
4320		97.656250
4321		101.562500
4322		95.703125
4323		99.609375
4324		95.703125
4325		99.609375
4326		93.750000
4327		97.656250
4328		89.843750
4329		95.703125
4330		87.890625
4331		95.703125
4332		85.937500
4333		93.750000
4334		83.984375
4335		91.796875
4336		82.031250
4337		85.937500
4338		78.125000
4339		83.984375
4340		74.218750
4341		80.078125
4342		72.265625
4343		78.125000
4344		68.359375
4345		74.218750
4346		64.453125
4347		72.265625
4348		58.593750
4349		68.359375
4350		54.687500
4351		64.453125
4352		52.734375
4353		58.593750
4354		48.828125
4355		54.687500
4356		44.921875
4357		50.781250
4358		39.062500
4359		46.875000
4360		35.156250
4361		41.015625
4362		31.250000
4363		37.109375
4364		25.390625
4365		33.203125
4366		19.531250
4367		27.343750
4368		15.625000
4369		23.437500
4370		11.718750
4371		17.578125
4372		5.859375
4373		13.671875
4374		1.953125
4375		7.812500
4376		-3.906250
4377		1.953125
4378		-9.765625
4379		-1.953125
4380		-13.671875
4381		-7.812500
4382		-19.531250
4383		-13.671875
4384		-23.437500
4385		-15.625000
4386		-29.296875
4387		-23.437500
4388		-35.156250
4389		-27.343750
4390		-39.062500
4391		-31.250000
4392		-44.921875
4393		-37.109375
4394		-48.828125
4395		-42.968750
4396		-52.734375
4397		-46.875000
4398		-56.640625
4399		-50.781250
4400		-60.546875
4401		-54.687500
4402		-66.406250
4403		-60.546875
4404		-68.359375
4405		-64.453125
4406		-74.218750
4407		-66.406250
4408		-76.171875
4409		-70.312500
4410		-80.078125
4411		-74.218750
4412		-82.031250
4413		-78.125000
4414		-85.937500
4415		-82.031250
4416		-87.890625
4417		-83.984375
4418		-91.796875
4419		-85.937500
4420		-93.750000
4421		-89.843750
4422		-95.703125
4423		-89.843750
4424		-95.703125
4425		-91.796875
4426		-97.656250
4427		-93.750000
4428		-99.609375
4429		-95.703125
4430		-99.609375
4431		-95.703125
4432		-101.562500
4433		-97.656250
4434		-101.562500
4435		-97.656250
4436		-101.562500
4437		-97.656250
4438		-99.609375
4439		-97.656250
4440		-99.609375
4441		-95.703125
4442		-99.609375
4443		-95.703125
4444		-97.656250
4445		-93.750000
4446		-97.656250
4447		-93.750000
4448		-95.703125
4449		-91.796875
4450		-93.750000
4451		-87.890625
4452		-91.796875
4453		-85.937500
4454		-89.843750
4455		-83.984375
4456		-87.890625
4457		-82.031250
4458		-83.984375
4459		-78.125000
4460		-80.078125
4461		-76.171875
4462		-78.125000
4463		-70.312500
4464		-74.218750
4465		-68.359375
4466		-70.312500
4467		-64.453125
4468		-66.406250
4469		-60.546875
4470		-62.500000
4471		-54.687500
4472		-58.593750
4473		-52.734375
4474		-54.687500
4475		-48.828125
4476		-48.828125
4477		-42.968750
4478		-44.921875
4479		-39.062500
4480		-41.015625
4481		-33.203125
4482		-35.156250
4483		-27.343750
4484		-31.250000
4485		-23.437500
4486		-25.390625
4487		-17.578125
4488		-21.484375
4489		-13.671875
4490		-15.625000
4491		-7.812500
4492		-9.765625
4493		-3.906250
4494		-5.859375
4495		1.953125
4496		0.000000
4497		5.859375
4498		5.859375
4499		11.718750
4500		9.765625
4501		17.578125
4502		15.625000
4503		21.484375
4504		19.531250
4505		27.343750
4506		25.390625
4507		31.250000
4508		29.296875
4509		35.156250
4510		35.156250
4511		41.015625
4512		39.062500
4513		44.921875
4514		42.968750
4515		48.828125
4516		46.875000
4517		52.734375
4518		52.734375
4519		58.593750
4520		56.640625
4521		62.500000
4522		60.546875
4523		66.406250
4524		64.453125
4525		70.312500
4526		68.359375
4527		72.265625
4528		70.312500
4529		76.171875
4530		74.218750
4531		78.125000
4532		76.171875
4533		82.031250
4534		80.078125
4535		85.937500
4536		83.984375
4537		87.890625
4538		85.937500
4539		89.843750
4540		87.890625
4541		91.796875
4542		89.843750
4543		93.750000
4544		91.796875
4545		95.703125
4546		93.750000
4547		97.656250
4548		95.703125
4549		99.609375
4550		97.656250
4551		101.562500
4552		97.656250
4553		101.562500
4554		99.609375
4555		103.515625
4556		99.609375
4557		103.515625
4558		99.609375
4559		103.515625
4560		101.562500
4561		103.515625
4562		101.562500
4563		103.515625
4564		99.609375
4565		103.515625
4566		99.609375
4567		103.515625
4568		99.609375
4569		103.515625
4570		99.609375
4571		101.562500
4572		97.656250
4573		101.562500
4574		95.703125
4575		99.609375
4576		93.750000
4577		99.609375
4578		93.750000
4579		97.656250
4580		89.843750
4581		95.703125
4582		89.843750
4583		93.750000
4584		85.937500
4585		91.796875
4586		83.984375
4587		87.890625
4588		82.031250
4589		85.937500
4590		78.125000
4591		83.984375
4592		74.218750
4593		80.078125
4594		72.265625
4595		76.171875
4596		68.359375
4597		74.218750
4598		64.453125
4599		72.265625
4600		60.546875
4601		66.406250
4602		56.640625
4603		62.500000
4604		52.734375
4605		60.546875
4606		48.828125
4607		54.687500
4608		44.921875
4609		50.781250
4610		39.062500
4611		46.875000
4612		35.156250
4613		41.015625
4614		31.250000
4615		37.109375
4616		25.390625
4617		31.250000
4618		21.484375
4619		27.343750
4620		15.625000
4621		21.484375
4622		11.718750
4623		17.578125
4624		5.859375
4625		13.671875
4626		0.000000
4627		7.812500
4628		-3.906250
4629		1.953125
4630		-9.765625
4631		-1.953125
4632		-15.625000
4633		-7.812500
4634		-19.531250
4635		-13.671875
4636		-25.390625
4637		-17.578125
4638		-29.296875
4639		-23.437500
4640		-35.156250
4641		-27.343750
4642		-39.062500
4643		-33.203125
4644		-44.921875
4645		-39.062500
4646		-48.828125
4647		-42.968750
4648		-52.734375
4649		-46.875000
4650		-58.593750
4651		-52.734375
4652		-62.500000
4653		-54.687500
4654		-66.406250
4655		-60.546875
4656		-70.312500
4657		-64.453125
4658		-74.218750
4659		-68.359375
4660		-76.171875
4661		-72.265625
4662		-80.078125
4663		-74.218750
4664		-83.984375
4665		-78.125000
4666		-85.937500
4667		-82.031250
4668		-89.843750
4669		-83.984375
4670		-91.796875
4671		-87.890625
4672		-93.750000
4673		-89.843750
4674		-95.703125
4675		-91.796875
4676		-97.656250
4677		-93.750000
4678		-97.656250
4679		-95.703125
4680		-99.609375
4681		-95.703125
4682		-99.609375
4683		-95.703125
4684		-101.562500
4685		-97.656250
4686		-101.562500
4687		-97.656250
4688		-101.562500
4689		-97.656250
4690		-99.609375
4691		-97.656250
4692		-101.562500
4693		-97.656250
4694		-99.609375
4695		-95.703125
4696		-97.656250
4697		-93.750000
4698		-97.656250
4699		-93.750000
4700		-95.703125
4701		-91.796875
4702		-93.750000
4703		-89.843750
4704		-91.796875
4705		-87.890625
4706		-89.843750
4707		-85.937500
4708		-87.890625
4709		-82.031250
4710		-83.984375
4711		-80.078125
4712		-82.031250
4713		-76.171875
4714		-78.125000
4715		-72.265625
4716		-74.218750
4717		-68.359375
4718		-70.312500
4719		-64.453125
4720		-66.406250
4721		-60.546875
4722		-62.500000
4723		-56.640625
4724		-58.593750
4725		-52.734375
4726		-54.687500
4727		-48.828125
4728		-48.828125
4729		-42.968750
4730		-44.921875
4731		-39.062500
4732		-41.015625
4733		-33.203125
4734		-35.156250
4735		-29.296875
4736		-31.250000
4737		-23.437500
4738		-25.390625
4739		-19.531250
4740		-19.531250
4741		-13.671875
4742		-15.625000
4743		-7.812500
4744		-11.718750
4745		-3.906250
4746		-5.859375
4747		1.953125
4748		0.000000
4749		7.812500
4750		5.859375
4751		11.718750
4752		9.765625
4753		17.578125
4754		15.625000
4755		21.484375
4756		19.531250
4757		27.343750
4758		25.390625
4759		31.250000
4760		29.296875
4761		35.156250
4762		35.156250
4763		41.015625
4764		39.062500
4765		44.921875
4766		42.968750
4767		48.828125
4768		46.875000
4769		54.687500
4770		52.734375
4771		58.593750
4772		56.640625
4773		62.500000
4774		60.546875
4775		66.406250
4776		64.453125
4777		68.359375
4778		66.406250
4779		72.265625
4780		70.312500
4781		76.171875
4782		74.218750
4783		80.078125
4784		78.125000
4785		83.984375
4786		80.078125
4787		85.937500
4788		82.031250
4789		87.890625
4790		85.937500
4791		89.843750
4792		87.890625
4793		91.796875
4794		89.843750
4795		93.750000
4796		91.796875
4797		95.703125
4798		93.750000
4799		99.609375
4800		95.703125
4801		99.609375
4802		97.656250
4803		101.562500
4804		97.656250
4805		101.562500
4806		99.609375
4807		101.562500
4808		99.609375
4809		103.515625
4810		99.609375
4811		103.515625
4812		101.562500
4813		103.515625
4814		101.562500
4815		103.515625
4816		99.609375
4817		105.468750
4818		99.609375
4819		103.515625
4820		99.609375
4821		103.515625
4822		97.656250
4823		101.562500
4824		95.703125
4825		99.609375
4826		95.703125
4827		99.609375
4828		93.750000
4829		99.609375
4830		93.750000
4831		95.703125
4832		89.843750
4833		95.703125
4834		87.890625
4835		91.796875
4836		85.937500
4837		89.843750
4838		83.984375
4839		87.890625
4840		82.031250
4841		85.937500
4842		78.125000
4843		82.031250
4844		74.218750
4845		80.078125
4846		72.265625
4847		76.171875
4848		68.359375
4849		74.218750
4850		64.453125
4851		70.312500
4852		60.546875
4853		66.406250
4854		56.640625
4855		62.500000
4856		52.734375
4857		58.593750
4858		48.828125
4859		54.687500
4860		44.921875
4861		50.781250
4862		39.062500
4863		46.875000
4864		35.156250
4865		41.015625
4866		29.296875
4867		37.109375
4868		25.390625
4869		31.250000
4870		21.484375
4871		27.343750
4872		15.625000
4873		21.484375
4874		9.765625
4875		17.578125
4876		5.859375
4877		11.718750
4878		0.000000
4879		7.812500
4880		-3.906250
4881		1.953125
4882		-9.765625
4883		-3.906250
4884		-15.625000
4885		-7.812500
4886		-19.531250
4887		-13.671875
4888		-25.390625
4889		-17.578125
4890		-29.296875
4891		-23.437500
4892		-35.156250
4893		-29.296875
4894		-41.015625
4895		-33.203125
4896		-44.921875
4897		-39.062500
4898		-48.828125
4899		-42.968750
4900		-54.687500
4901		-48.828125
4902		-58.593750
4903		-52.734375
4904		-62.500000
4905		-56.640625
4906		-66.406250
4907		-60.546875
4908		-70.312500
4909		-64.453125
4910		-74.218750
4911		-68.359375
4912		-78.125000
4913		-72.265625
4914		-80.078125
4915		-76.171875
4916		-85.937500
4917		-78.125000
4918		-85.937500
4919		-82.031250
4920		-89.843750
4921		-83.984375
4922		-91.796875
4923		-87.890625
4924		-93.750000
4925		-89.843750
4926		-95.703125
4927		-91.796875
4928		-97.656250
4929		-93.750000
4930		-97.656250
4931		-95.703125
4932		-99.609375
4933		-95.703125
4934		-99.609375
4935		-95.703125
4936		-101.562500
4937		-97.656250
4938		-101.562500
4939		-97.656250
4940		-101.562500
4941		-97.656250
4942		-101.562500
4943		-97.656250
4944		-99.609375
4945		-95.703125
4946		-99.609375
4947		-95.703125
4948		-97.656250
4949		-95.703125
4950		-97.656250
4951		-93.750000
4952		-95.703125
4953		-89.843750
4954		-93.750000
4955		-89.843750
4956		-91.796875
4957		-85.937500
4958		-89.843750
4959		-83.984375
4960		-85.937500
4961		-82.031250
4962		-83.984375
4963		-80.078125
4964		-80.078125
4965		-76.171875
4966		-78.125000
4967		-72.265625
4968		-74.218750
4969		-68.359375
4970		-70.312500
4971		-64.453125
4972		-66.406250
4973		-60.546875
4974		-62.500000
4975		-56.640625
4976		-58.593750
4977		-50.781250
4978		-54.687500
4979		-46.875000
4980		-48.828125
4981		-42.968750
4982		-44.921875
4983		-39.062500
4984		-39.062500
4985		-33.203125
4986		-35.156250
4987		-29.296875
4988		-29.296875
4989		-23.437500
4990		-25.390625
4991		-19.531250
4992		-21.484375
4993		-13.671875
4994		-15.625000
4995		-7.812500
4996		-9.765625
4997		-3.906250
4998		-5.859375
4999		1.953125
5000		0.000000
5001		7.812500
5002		3.906250
5003		11.718750
5004		9.765625
5005		17.578125
5006		15.625000
5007		21.484375
5008		19.531250
5009		27.343750
5010		25.390625
5011		31.250000
5012		29.296875
5013		37.109375
5014		35.156250
5015		41.015625
5016		39.062500
5017		44.921875
5018		42.968750
5019		50.781250
5020		46.875000
5021		52.734375
5022		50.781250
5023		58.593750
5024		56.640625
5025		62.500000
5026		60.546875
5027		66.406250
5028		64.453125
5029		70.312500
5030		66.406250
5031		72.265625
5032		70.312500
5033		76.171875
5034		74.218750
5035		80.078125
5036		78.125000
5037		82.031250
5038		80.078125
5039		85.937500
5040		83.984375
5041		87.890625
5042		85.937500
5043		89.843750
5044		87.890625
5045		91.796875
5046		89.843750
5047		93.750000
5048		91.796875
5049		95.703125
5050		93.750000
5051		97.656250
5052		93.750000
5053		99.609375
5054		95.703125
5055		101.562500
5056		97.656250
5057		101.562500
5058		99.609375
5059		103.515625
5060		99.609375
5061		103.515625
5062		99.609375
5063		103.515625
5064		101.562500
5065		103.515625
5066		101.562500
5067		103.515625
5068		99.609375
5069		103.515625
5070		99.609375
5071		103.515625
5072		99.609375
5073		101.562500
5074		97.656250
5075		101.562500
5076		97.656250
5077		101.562500
5078		95.703125
5079		99.609375
5080		93.750000
5081		97.656250
5082		93.750000
5083		95.703125
5084		89.843750
5085		95.703125
5086		89.843750
5087		93.750000
5088		85.937500
5089		91.796875
5090		83.984375
5091		87.890625
5092		80.078125
5093		85.937500
5094		78.125000
5095		82.031250
5096		74.218750
5097		80.078125
5098		72.265625
5099		76.171875
5100		68.359375
5101		74.218750
5102		64.453125
5103		70.312500
5104		60.546875
5105		66.406250
5106		56.640625
5107		62.500000
5108		52.734375
5109		58.593750
5110		48.828125
5111		54.687500
5112		44.921875
5113		50.781250
5114		39.062500
5115		46.875000
5116		35.156250
5117		41.015625
5118		29.296875
5119		37.109375
5120		25.390625
5121		31.250000
5122		21.484375
5123		27.343750
5124		15.625000
5125		21.484375
5126		9.765625
5127		17.578125
5128		3.906250
5129		11.718750
5130		0.000000
5131		5.859375
5132		-5.859375
5133		1.953125
5134		-9.765625
5135		-3.906250
5136		-15.625000
5137		-7.812500
5138		-21.484375
5139		-13.671875
5140		-25.390625
5141		-17.578125
5142		-29.296875
5143		-23.437500
5144		-35.156250
5145		-29.296875
5146		-41.015625
5147		-33.203125
5148		-44.921875
5149		-39.062500
5150		-48.828125
5151		-42.968750
5152		-54.687500
5153		-46.875000
5154		-58.593750
5155		-52.734375
5156		-62.500000
5157		-56.640625
5158		-66.406250
5159		-60.546875
5160		-70.312500
5161		-64.453125
5162		-74.218750
5163		-68.359375
5164		-78.125000
5165		-72.265625
5166		-80.078125
5167		-76.171875
5168		-83.984375
5169		-78.125000
5170		-85.937500
5171		-82.031250
5172		-89.843750
5173		-83.984375
5174		-91.796875
5175		-85.937500
5176		-93.750000
5177		-89.843750
5178		-95.703125
5179		-91.796875
5180		-97.656250
5181		-93.750000
5182		-99.609375
5183		-95.703125
5184		-99.609375
5185		-95.703125
5186		-101.562500
5187		-95.703125
5188		-101.562500
5189		-97.656250
5190		-101.562500
5191		-97.656250
5192		-101.562500
5193		-97.656250
5194		-101.562500
5195		-97.656250
5196		-99.609375
5197		-97.656250
5198		-99.609375
5199		-95.703125
5200		-97.656250
5201		-95.703125
5202		-97.656250
5203		-91.796875
5204		-95.703125
5205		-91.796875
5206		-93.750000
5207		-89.843750
5208		-91.796875
5209		-87.890625
5210		-89.843750
5211		-83.984375
5212		-85.937500
5213		-82.031250
5214		-83.984375
5215		-78.125000
5216		-80.078125
5217		-76.171875
5218		-78.125000
5219		-72.265625
5220		-74.218750
5221		-68.359375
5222		-70.312500
5223		-64.453125
5224		-66.406250
5225		-60.546875
5226		-62.500000
5227		-56.640625
5228		-58.593750
5229		-52.734375
5230		-54.687500
5231		-46.875000
5232		-50.781250
5233		-42.968750
5234		-44.921875
5235		-39.062500
5236		-39.062500
5237		-33.203125
5238		-35.156250
5239		-29.296875
5240		-29.296875
5241		-23.437500
5242		-25.390625
5243		-19.531250
5244		-19.531250
5245		-13.671875
5246		-15.625000
5247		-7.812500
5248		-9.765625
5249		-3.906250
5250		-5.859375
5251		1.953125
5252		0.000000
5253		7.812500
5254		5.859375
5255		11.718750
5256		9.765625
5257		17.578125
5258		15.625000
5259		21.484375
5260		19.531250
5261		25.390625
5262		23.437500
5263		31.250000
5264		29.296875
5265		37.109375
5266		35.156250
5267		41.015625
5268		39.062500
5269		44.921875
5270		42.968750
5271		48.828125
5272		48.828125
5273		54.687500
5274		52.734375
5275		58.593750
5276		56.640625
5277		62.500000
5278		60.546875
5279		66.406250
5280		64.453125
5281		68.359375
5282		66.406250
5283		72.265625
5284		70.312500
5285		76.171875
5286		74.218750
5287		80.078125
5288		78.125000
5289		82.031250
5290		80.078125
5291		85.937500
5292		83.984375
5293		87.890625
5294		85.937500
5295		89.843750
5296		87.890625
5297		91.796875
5298		89.843750
5299		93.750000
5300		91.796875
5301		95.703125
5302		93.750000
5303		97.656250
5304		95.703125
5305		99.609375
5306		95.703125
5307		101.562500
5308		97.656250
5309		101.562500
5310		99.609375
5311		101.562500
5312		99.609375
5313		103.515625
5314		99.609375
5315		103.515625
5316		99.609375
5317		103.515625
5318		101.562500
5319		103.515625
5320		99.609375
5321		103.515625
5322		99.609375
5323		103.515625
5324		99.609375
5325		101.562500
5326		97.656250
5327		101.562500
5328		97.656250
5329		101.562500
5330		95.703125
5331		99.609375
5332		93.750000
5333		99.609375
5334		93.750000
5335		95.703125
5336		89.843750
5337		93.750000
5338		87.890625
5339		93.750000
5340		85.937500
5341		89.843750
5342		83.984375
5343		87.890625
5344		82.031250
5345		85.937500
5346		78.125000
5347		83.984375
5348		74.218750
5349		80.078125
5350		72.265625
5351		76.171875
5352		68.359375
5353		72.265625
5354		64.453125
5355		70.312500
5356		60.546875
5357		66.406250
5358		56.640625
5359		62.500000
5360		52.734375
5361		58.593750
5362		46.875000
5363		54.687500
5364		42.968750
5365		48.828125
5366		39.062500
5367		46.875000
5368		35.156250
5369		41.015625
5370		29.296875
5371		37.109375
5372		25.390625
5373		31.250000
5374		19.531250
5375		27.343750
5376		15.625000
5377		21.484375
5378		9.765625
5379		17.578125
5380		5.859375
5381		11.718750
5382		0.000000
5383		7.812500
5384		-5.859375
5385		1.953125
5386		-9.765625
5387		-3.906250
5388		-15.625000
5389		-7.812500
5390		-21.484375
5391		-13.671875
5392		-25.390625
5393		-19.531250
5394		-31.250000
5395		-23.437500
5396		-35.156250
5397		-29.296875
5398		-41.015625
5399		-33.203125
5400		-44.921875
5401		-37.109375
5402		-48.828125
5403		-42.968750
5404		-54.687500
5405		-48.828125
5406		-58.593750
5407		-52.734375
5408		-64.453125
5409		-56.640625
5410		-66.406250
5411		-60.546875
5412		-70.312500
5413		-64.453125
5414		-76.171875
5415		-68.359375
5416		-78.125000
5417		-72.265625
5418		-82.031250
5419		-76.171875
5420		-85.937500
5421		-80.078125
5422		-87.890625
5423		-82.031250
5424		-89.843750
5425		-85.937500
5426		-91.796875
5427		-87.890625
5428		-93.750000
5429		-89.843750
5430		-95.703125
5431		-91.796875
5432		-99.609375
5433		-93.750000
5434		-97.656250
5435		-95.703125
5436		-99.609375
5437		-95.703125
5438		-101.562500
5439		-95.703125
5440		-101.562500
5441		-97.656250
5442		-101.562500
5443		-97.656250
5444		-101.562500
5445		-97.656250
5446		-101.562500
5447		-97.656250
5448		-101.562500
5449		-97.656250
5450		-101.562500
5451		-97.656250
5452		-97.656250
5453		-95.703125
5454		-97.656250
5455		-93.750000
5456		-95.703125
5457		-91.796875
5458		-93.750000
5459		-89.843750
5460		-91.796875
5461		-87.890625
5462		-89.843750
5463		-83.984375
5464		-85.937500
5465		-82.031250
5466		-83.984375
5467		-78.125000
5468		-80.078125
5469		-76.171875
5470		-78.125000
5471		-72.265625
5472		-76.171875
5473		-68.359375
5474		-70.312500
5475		-64.453125
5476		-66.406250
5477		-60.546875
5478		-62.500000
5479		-56.640625
5480		-58.593750
5481		-52.734375
5482		-54.687500
5483		-46.875000
5484		-48.828125
5485		-42.968750
5486		-44.921875
5487		-39.062500
5488		-41.015625
5489		-33.203125
5490		-35.156250
5491		-27.343750
5492		-31.250000
5493		-23.437500
5494		-25.390625
5495		-17.578125
5496		-19.531250
5497		-13.671875
5498		-15.625000
5499		-7.812500
5500		-9.765625
5501		-3.906250
5502		-5.859375
5503		1.953125
5504		0.000000
5505		7.812500
5506		5.859375
5507		11.718750
5508		9.765625
5509		17.578125
5510		13.671875
5511		21.484375
5512		19.531250
5513		25.390625
5514		25.390625
5515		31.250000
5516		29.296875
5517		37.109375
5518		35.156250
5519		41.015625
5520		39.062500
5521		44.921875
5522		42.968750
5523		50.781250
5524		46.875000
5525		54.687500
5526		52.734375
5527		58.593750
5528		56.640625
5529		60.546875
5530		60.546875
5531		66.406250
5532		64.453125
5533		68.359375
5534		66.406250
5535		72.265625
5536		70.312500
5537		76.171875
5538		74.218750
5539		80.078125
5540		76.171875
5541		82.031250
5542		80.078125
5543		85.937500
5544		83.984375
5545		87.890625
5546		85.937500
5547		89.843750
5548		87.890625
5549		91.796875
5550		89.843750
5551		93.750000
5552		91.796875
5553		95.703125
5554		93.750000
5555		97.656250
5556		93.750000
5557		99.609375
5558		95.703125
5559		99.609375
5560		97.656250
5561		101.562500
5562		99.609375
5563		101.562500
5564		99.609375
5565		103.515625
5566		99.609375
5567		103.515625
5568		99.609375
5569		103.515625
5570		99.609375
5571		103.515625
5572		99.609375
5573		103.515625
5574		99.609375
5575		103.515625
5576		99.609375
5577		101.562500
5578		97.656250
5579		101.562500
5580		97.656250
5581		99.609375
5582		95.703125
5583		99.609375
5584		93.750000
5585		97.656250
5586		93.750000
5587		95.703125
5588		89.843750
5589		93.750000
5590		87.890625
5591		91.796875
5592		85.937500
5593		91.796875
5594		83.984375
5595		87.890625
5596		80.078125
5597		85.937500
5598		78.125000
5599		83.984375
5600		74.218750
5601		80.078125
5602		72.265625
5603		76.171875
5604		68.359375
5605		72.265625
5606		64.453125
5607		70.312500
5608		60.546875
5609		66.406250
5610		56.640625
5611		62.500000
5612		52.734375
5613		58.593750
5614		48.828125
5615		54.687500
5616		42.968750
5617		48.828125
5618		39.062500
5619		44.921875
5620		35.156250
5621		41.015625
5622		29.296875
5623		35.156250
5624		25.390625
5625		31.250000
5626		19.531250
5627		25.390625
5628		13.671875
5629		21.484375
5630		9.765625
5631		15.625000
5632		3.906250
5633		11.718750
5634		0.000000
5635		5.859375
5636		-5.859375
5637		0.000000
5638		-9.765625
5639		-3.906250
5640		-15.625000
5641		-7.812500
5642		-21.484375
5643		-13.671875
5644		-25.390625
5645		-17.578125
5646		-31.250000
5647		-25.390625
5648		-35.156250
5649		-29.296875
5650		-41.015625
5651		-35.156250
5652		-44.921875
5653		-37.109375
5654		-50.781250
5655		-42.968750
5656		-54.687500
5657		-48.828125
5658		-58.593750
5659		-52.734375
5660		-62.500000
5661		-56.640625
5662		-66.406250
5663		-60.546875
5664		-70.312500
5665		-66.406250
5666		-74.218750
5667		-70.312500
5668		-78.125000
5669		-72.265625
5670		-82.031250
5671		-76.171875
5672		-83.984375
5673		-80.078125
5674		-87.890625
5675		-82.031250
5676		-89.843750
5677		-83.984375
5678		-91.796875
5679		-87.890625
5680		-93.750000
5681		-89.843750
5682		-97.656250
5683		-91.796875
5684		-97.656250
5685		-93.750000
5686		-97.656250
5687		-95.703125
5688		-99.609375
5689		-97.656250
5690		-101.562500
5691		-95.703125
5692		-101.562500
5693		-97.656250
5694		-101.562500
5695		-97.656250
5696		-101.562500
5697		-97.656250
5698		-101.562500
5699		-97.656250
5700		-99.609375
5701		-97.656250
5702		-99.609375
5703		-95.703125
5704		-99.609375
5705		-95.703125
5706		-97.656250
5707		-93.750000
5708		-95.703125
5709		-91.796875
5710		-93.750000
5711		-89.843750
5712		-91.796875
5713		-87.890625
5714		-89.843750
5715		-83.984375
5716		-87.890625
5717		-82.031250
5718		-83.984375
5719		-78.125000
5720		-80.078125
5721		-76.171875
5722		-78.125000
5723		-72.265625
5724		-74.218750
5725		-68.359375
5726		-70.312500
5727		-64.453125
5728		-68.359375
5729		-60.546875
5730		-62.500000
5731		-56.640625
5732		-58.593750
5733		-52.734375
5734		-54.687500
5735		-46.875000
5736		-50.781250
5737		-42.968750
5738		-44.921875
5739		-39.062500
5740		-41.015625
5741		-33.203125
5742		-35.156250
5743		-29.296875
5744		-31.250000
5745		-23.437500
5746		-25.390625
5747		-19.531250
5748		-21.484375
5749		-13.671875
5750		-15.625000
5751		-7.812500
5752		-9.765625
5753		-3.906250
5754		-5.859375
5755		1.953125
5756		0.000000
5757		5.859375
5758		3.906250
5759		11.718750
5760		9.765625
5761		17.578125
5762		15.625000
5763		21.484375
5764		19.531250
5765		27.343750
5766		25.390625
5767		31.250000
5768		29.296875
5769		35.156250
5770		33.203125
5771		41.015625
5772		39.062500
5773		44.921875
5774		42.968750
5775		48.828125
5776		46.875000
5777		52.734375
5778		52.734375
5779		56.640625
5780		54.687500
5781		62.500000
5782		60.546875
5783		66.406250
5784		64.453125
5785		68.359375
5786		66.406250
5787		72.265625
5788		70.312500
5789		76.171875
5790		74.218750
5791		80.078125
5792		76.171875
5793		82.031250
5794		80.078125
5795		83.984375
5796		82.031250
5797		87.890625
5798		85.937500
5799		89.843750
5800		87.890625
5801		91.796875
5802		89.843750
5803		93.750000
5804		91.796875
5805		95.703125
5806		93.750000
5807		97.656250
5808		95.703125
5809		99.609375
5810		95.703125
5811		99.609375
5812		97.656250
5813		101.562500
5814		97.656250
5815		101.562500
5816		99.609375
5817		101.562500
5818		99.609375
5819		103.515625
5820		99.609375
5821		103.515625
5822		99.609375
5823		103.515625
5824		99.609375
5825		103.515625
5826		99.609375
5827		103.515625
5828		97.656250
5829		101.562500
5830		97.656250
5831		101.562500
5832		95.703125
5833		101.562500
5834		93.750000
5835		99.609375
5836		93.750000
5837		97.656250
5838		91.796875
5839		95.703125
5840		89.843750
5841		93.750000
5842		87.890625
5843		93.750000
5844		85.937500
5845		89.843750
5846		83.984375
5847		87.890625
5848		80.078125
5849		85.937500
5850		76.171875
5851		82.031250
5852		74.218750
5853		80.078125
5854		70.312500
5855		76.171875
5856		68.359375
5857		72.265625
5858		64.453125
5859		68.359375
5860		60.546875
5861		66.406250
5862		54.687500
5863		60.546875
5864		50.781250
5865		58.593750
5866		46.875000
5867		52.734375
5868		42.968750
5869		50.781250
5870		39.062500
5871		44.921875
5872		33.203125
5873		39.062500
5874		29.296875
5875		35.156250
5876		23.437500
5877		31.250000
5878		17.578125
5879		27.343750
5880		13.671875
5881		21.484375
5882		7.812500
5883		17.578125
5884		1.953125
5885		11.718750
5886		-1.953125
5887		5.859375
5888		-5.859375
5889		0.000000
5890		-11.718750
5891		-3.906250
5892		-17.578125
5893		-9.765625
5894		-23.437500
5895		-13.671875
5896		-27.343750
5897		-19.531250
5898		-33.203125
5899		-23.437500
5900		-37.109375
5901		-29.296875
5902		-42.968750
5903		-35.156250
5904		-44.921875
5905		-39.062500
5906		-50.781250
5907		-44.921875
5908		-56.640625
5909		-48.828125
5910		-60.546875
5911		-52.734375
5912		-64.453125
5913		-56.640625
5914		-68.359375
5915		-62.500000
5916		-72.265625
5917		-64.453125
5918		-76.171875
5919		-68.359375
5920		-78.125000
5921		-72.265625
5922		-82.031250
5923		-76.171875
5924		-83.984375
5925		-80.078125
5926		-87.890625
5927		-82.031250
5928		-91.796875
5929		-83.984375
5930		-93.750000
5931		-85.937500
5932		-95.703125
5933		-89.843750
5934		-97.656250
5935		-91.796875
5936		-99.609375
5937		-93.750000
5938		-99.609375
5939		-95.703125
5940		-99.609375
5941		-97.656250
5942		-101.562500
5943		-97.656250
5944		-101.562500
5945		-99.609375
5946		-101.562500
5947		-99.609375
5948		-101.562500
5949		-99.609375
5950		-101.562500
5951		-99.609375
5952		-101.562500
5953		-97.656250
5954		-99.609375
5955		-95.703125
5956		-99.609375
5957		-95.703125
5958		-97.656250
5959		-93.750000
5960		-95.703125
5961		-91.796875
5962		-93.750000
5963		-89.843750
5964		-91.796875
5965		-87.890625
5966		-89.843750
5967		-85.937500
5968		-85.937500
5969		-82.031250
5970		-83.984375
5971		-80.078125
5972		-82.031250
5973		-76.171875
5974		-78.125000
5975		-72.265625
5976		-74.218750
5977		-68.359375
5978		-70.312500
5979		-64.453125
5980		-66.406250
5981		-60.546875
5982		-62.500000
5983		-56.640625
5984		-58.593750
5985		-52.734375
5986		-54.687500
5987		-48.828125
5988		-48.828125
5989		-42.968750
5990		-44.921875
5991		-39.062500
5992		-39.062500
5993		-33.203125
5994		-35.156250
5995		-29.296875
5996		-29.296875
5997		-23.437500
5998		-25.390625
5999		-19.531250
6000		-19.531250
6001		-13.671875
6002		-15.625000
6003		-7.812500
6004		-9.765625
6005		-3.906250
6006		-3.906250
6007		1.953125
6008		0.000000
6009		5.859375
6010		5.859375
6011		11.718750
6012		9.765625
6013		17.578125
6014		15.625000
6015		21.484375
6016		19.531250
6017		27.343750
6018		25.390625
6019		31.250000
6020		29.296875
6021		35.156250
6022		35.156250
6023		41.015625
6024		39.062500
6025		44.921875
6026		42.968750
6027		48.828125
6028		46.875000
6029		54.687500
6030		52.734375
6031		58.593750
6032		56.640625
6033		62.500000
6034		60.546875
6035		66.406250
6036		64.453125
6037		68.359375
6038		66.406250
6039		72.265625
6040		70.312500
6041		76.171875
6042		74.218750
6043		82.031250
6044		74.218750
6045		83.984375
6046		76.171875
6047		85.937500
6048		80.078125
6049		89.843750
6050		85.937500
6051		89.843750
6052		87.890625
6053		91.796875
6054		89.843750
6055		93.750000
6056		91.796875
6057		95.703125
6058		93.750000
6059		97.656250
6060		91.796875
6061		101.562500
6062		93.750000
6063		103.515625
6064		95.703125
6065		103.515625
6066		99.609375
6067		101.562500
6068		99.609375
6069		101.562500
6070		99.609375
6071		103.515625
6072		99.609375
6073		101.562500
6074		99.609375
6075		103.515625
6076		95.703125
6077		105.468750
6078		95.703125
6079		105.468750
6080		95.703125
6081		105.468750
6082		93.750000
6083		105.468750
6084		97.656250
6085		99.609375
6086		95.703125
6087		99.609375
6088		93.750000
6089		97.656250
6090		91.796875
6091		95.703125
6092		89.843750
6093		93.750000
6094		85.937500
6095		95.703125
6096		83.984375
6097		93.750000
6098		80.078125
6099		89.843750
6100		80.078125
6101		83.984375
6102		76.171875
6103		82.031250
6104		74.218750
6105		78.125000
6106		70.312500
6107		76.171875
6108		68.359375
6109		72.265625
6110		58.593750
6111		70.312500
6112		56.640625
6113		68.359375
6114		52.734375
6115		64.453125
6116		50.781250
6117		56.640625
6118		46.875000
6119		52.734375
6120		42.968750
6121		48.828125
6122		39.062500
6123		44.921875
6124		33.203125
6125		39.062500
6126		27.343750
6127		35.156250
6128		19.531250
6129		33.203125
6130		15.625000
6131		29.296875
6132		13.671875
6133		23.437500
6134		9.765625
6135		15.625000
6136		3.906250
6137		9.765625
6138		-1.953125
6139		5.859375
6140		-5.859375
6141		0.000000
6142		-11.718750
6143		-3.906250
6144		-19.531250
6145		-7.812500
6146		-23.437500
6147		-13.671875
6148		-29.296875
6149		-17.578125
6150		-31.250000
6151		-25.390625
6152		-37.109375
6153		-29.296875
6154		-41.015625
6155		-35.156250
6156		-46.875000
6157		-41.015625
6158		-50.781250
6159		-44.921875
6160		-58.593750
6161		-48.828125
6162		-62.500000
6163		-50.781250
6164		-66.406250
6165		-54.687500
6166		-68.359375
6167		-56.640625
6168		-72.265625
6169		-66.406250
6170		-74.218750
6171		-70.312500
6172		-78.125000
6173		-74.218750
6174		-82.031250
6175		-76.171875
6176		-83.984375
6177		-80.078125
6178		-89.843750
6179		-80.078125
6180		-93.750000
6181		-82.031250
6182		-93.750000
6183		-85.937500
6184		-93.750000
6185		-89.843750
6186		-95.703125
6187		-91.796875
6188		-97.656250
6189		-93.750000
6190		-99.609375
6191		-95.703125
6192		-99.609375
6193		-97.656250
6194		-105.468750
6195		-93.750000
6196		-103.515625
6197		-95.703125
6198		-103.515625
6199		-95.703125
6200		-101.562500
6201		-97.656250
6202		-101.562500
6203		-97.656250
6204		-99.609375
6205		-97.656250
6206		-99.609375
6207		-95.703125
6208		-99.609375
6209		-95.703125
6210		-97.656250
6211		-91.796875
6212		-99.609375
6213		-89.843750
6214		-95.703125
6215		-85.937500
6216		-95.703125
6217		-85.937500
6218		-89.843750
6219		-85.937500
6220		-85.937500
6221		-82.031250
6222		-83.984375
6223		-78.125000
6224		-82.031250
6225		-76.171875
6226		-78.125000
6227		-72.265625
6228		-74.218750
6229		-68.359375
6230		-72.265625
6231		-62.500000
6232		-68.359375
6233		-60.546875
6234		-62.500000
6235		-56.640625
6236		-58.593750
6237		-52.734375
6238		-52.734375
6239		-46.875000
6240		-48.828125
6241		-42.968750
6242		-44.921875
6243		-39.062500
6244		-39.062500
6245		-33.203125
6246		-35.156250
6247		-27.343750
6248		-31.250000
6249		-21.484375
6250		-25.390625
6251		-17.578125
6252		-19.531250
6253		-13.671875
6254		-15.625000
6255		-7.812500
6256		-9.765625
6257		-3.906250
6258		-3.906250
6259		1.953125
6260		0.000000
6261		7.812500
6262		5.859375
6263		11.718750
6264		9.765625
6265		17.578125
6266		13.671875
6267		21.484375
6268		21.484375
6269		27.343750
6270		25.390625
6271		33.203125
6272		29.296875
6273		37.109375
6274		35.156250
6275		41.015625
6276		39.062500
6277		44.921875
6278		42.968750
6279		48.828125
6280		48.828125
6281		54.687500
6282		52.734375
6283		58.593750
6284		56.640625
6285		62.500000
6286		60.546875
6287		66.406250
6288		64.453125
6289		70.312500
6290		68.359375
6291		72.265625
6292		70.312500
6293		76.171875
6294		74.218750
6295		78.125000
6296		78.125000
6297		82.031250
6298		80.078125
6299		85.937500
6300		83.984375
6301		87.890625
6302		85.937500
6303		89.843750
6304		87.890625
6305		91.796875
6306		89.843750
6307		93.750000
6308		91.796875
6309		95.703125
6310		93.750000
6311		97.656250
6312		95.703125
6313		99.609375
6314		97.656250
6315		99.609375
6316		97.656250
6317		101.562500
6318		97.656250
6319		101.562500
6320		99.609375
6321		101.562500
6322		99.609375
6323		101.562500
6324		99.609375
6325		103.515625
6326		99.609375
6327		103.515625
6328		99.609375
6329		103.515625
6330		99.609375
6331		103.515625
6332		99.609375
6333		101.562500
6334		97.656250
6335		101.562500
6336		95.703125
6337		99.609375
6338		95.703125
6339		99.609375
6340		93.750000
6341		97.656250
6342		91.796875
6343		95.703125
6344		89.843750
6345		93.750000
6346		87.890625
6347		91.796875
6348		85.937500
6349		91.796875
6350		82.031250
6351		87.890625
6352		78.125000
6353		83.984375
6354		78.125000
6355		82.031250
6356		74.218750
6357		78.125000
6358		70.312500
6359		76.171875
6360		66.406250
6361		72.265625
6362		62.500000
6363		68.359375
6364		60.546875
6365		66.406250
6366		54.687500
6367		60.546875
6368		50.781250
6369		56.640625
6370		46.875000
6371		52.734375
6372		42.968750
6373		48.828125
6374		39.062500
6375		42.968750
6376		33.203125
6377		39.062500
6378		27.343750
6379		35.156250
6380		23.437500
6381		31.250000
6382		19.531250
6383		25.390625
6384		13.671875
6385		19.531250
6386		7.812500
6387		15.625000
6388		3.906250
6389		11.718750
6390		-1.953125
6391		5.859375
6392		-5.859375
6393		0.000000
6394		-11.718750
6395		-3.906250
6396		-17.578125
6397		-9.765625
6398		-21.484375
6399		-15.625000
6400		-27.343750
6401		-19.531250
6402		-31.250000
6403		-25.390625
6404		-37.109375
6405		-29.296875
6406		-41.015625
6407		-35.156250
6408		-46.875000
6409		-41.015625
6410		-50.781250
6411		-44.921875
6412		-56.640625
6413		-48.828125
6414		-60.546875
6415		-52.734375
6416		-64.453125
6417		-58.593750
6418		-68.359375
6419		-62.500000
6420		-72.265625
6421		-66.406250
6422		-74.218750
6423		-68.359375
6424		-78.125000
6425		-74.218750
6426		-82.031250
6427		-76.171875
6428		-83.984375
6429		-80.078125
6430		-87.890625
6431		-82.031250
6432		-89.843750
6433		-85.937500
6434		-91.796875
6435		-87.890625
6436		-95.703125
6437		-89.843750
6438		-95.703125
6439		-91.796875
6440		-97.656250
6441		-93.750000
6442		-99.609375
6443		-95.703125
6444		-99.609375
6445		-97.656250
6446		-101.562500
6447		-95.703125
6448		-101.562500
6449		-97.656250
6450		-101.562500
6451		-97.656250
6452		-101.562500
6453		-97.656250
6454		-101.562500
6455		-97.656250
6456		-99.609375
6457		-97.656250
6458		-99.609375
6459		-95.703125
6460		-97.656250
6461		-95.703125
6462		-97.656250
6463		-91.796875
6464		-95.703125
6465		-91.796875
6466		-93.750000
6467		-89.843750
6468		-91.796875
6469		-87.890625
6470		-89.843750
6471		-83.984375
6472		-85.937500
6473		-82.031250
6474		-83.984375
6475		-78.125000
6476		-80.078125
6477		-76.171875
6478		-76.171875
6479		-72.265625
6480		-74.218750
6481		-68.359375
6482		-70.312500
6483		-64.453125
6484		-66.406250
6485		-60.546875
6486		-62.500000
6487		-54.687500
6488		-58.593750
6489		-50.781250
6490		-52.734375
6491		-46.875000
6492		-48.828125
6493		-42.968750
6494		-44.921875
6495		-37.109375
6496		-39.062500
6497		-33.203125
6498		-35.156250
6499		-27.343750
6500		-29.296875
6501		-23.437500
6502		-23.437500
6503		-17.578125
6504		-19.531250
6505		-11.718750
6506		-15.625000
6507		-7.812500
6508		-9.765625
6509		-1.953125
6510		-3.906250
6511		1.953125
6512		0.000000
6513		7.812500
6514		5.859375
6515		11.718750
6516		11.718750
6517		17.578125
6518		15.625000
6519		21.484375
6520		21.484375
6521		27.343750
6522		25.390625
6523		31.250000
6524		31.250000
6525		37.109375
6526		35.156250
6527		41.015625
6528		39.062500
6529		46.875000
6530		44.921875
6531		50.781250
6532		48.828125
6533		54.687500
6534		52.734375
6535		58.593750
6536		56.640625
6537		62.500000
6538		60.546875
6539		66.406250
6540		64.453125
6541		70.312500
6542		68.359375
6543		74.218750
6544		72.265625
6545		76.171875
6546		74.218750
6547		80.078125
6548		78.125000
6549		82.031250
6550		80.078125
6551		85.937500
6552		83.984375
6553		87.890625
6554		85.937500
6555		89.843750
6556		87.890625
6557		91.796875
6558		89.843750
6559		93.750000
6560		91.796875
6561		95.703125
6562		93.750000
6563		97.656250
6564		95.703125
6565		97.656250
6566		97.656250
6567		99.609375
6568		97.656250
6569		101.562500
6570		99.609375
6571		101.562500
6572		99.609375
6573		101.562500
6574		99.609375
6575		103.515625
6576		99.609375
6577		103.515625
6578		99.609375
6579		101.562500
6580		99.609375
6581		101.562500
6582		99.609375
6583		101.562500
6584		97.656250
6585		101.562500
6586		97.656250
6587		99.609375
6588		95.703125
6589		99.609375
6590		95.703125
6591		97.656250
6592		93.750000
6593		97.656250
6594		91.796875
6595		95.703125
6596		89.843750
6597		93.750000
6598		87.890625
6599		91.796875
6600		85.937500
6601		89.843750
6602		82.031250
6603		85.937500
6604		80.078125
6605		83.984375
6606		76.171875
6607		82.031250
6608		74.218750
6609		78.125000
6610		70.312500
6611		76.171875
6612		66.406250
6613		72.265625
6614		62.500000
6615		68.359375
6616		58.593750
6617		64.453125
6618		54.687500
6619		60.546875
6620		50.781250
6621		56.640625
6622		46.875000
6623		52.734375
6624		41.015625
6625		48.828125
6626		37.109375
6627		42.968750
6628		33.203125
6629		39.062500
6630		27.343750
6631		33.203125
6632		23.437500
6633		29.296875
6634		17.578125
6635		23.437500
6636		13.671875
6637		19.531250
6638		7.812500
6639		13.671875
6640		1.953125
6641		9.765625
6642		-1.953125
6643		3.906250
6644		-7.812500
6645		0.000000
6646		-11.718750
6647		-5.859375
6648		-17.578125
6649		-9.765625
6650		-21.484375
6651		-15.625000
6652		-27.343750
6653		-21.484375
6654		-33.203125
6655		-25.390625
6656		-37.109375
6657		-31.250000
6658		-41.015625
6659		-35.156250
6660		-46.875000
6661		-41.015625
6662		-50.781250
6663		-44.921875
6664		-56.640625
6665		-48.828125
6666		-60.546875
6667		-52.734375
6668		-64.453125
6669		-58.593750
6670		-68.359375
6671		-62.500000
6672		-72.265625
6673		-66.406250
6674		-76.171875
6675		-70.312500
6676		-78.125000
6677		-74.218750
6678		-82.031250
6679		-78.125000
6680		-85.937500
6681		-80.078125
6682		-87.890625
6683		-82.031250
6684		-91.796875
6685		-85.937500
6686		-91.796875
6687		-87.890625
6688		-93.750000
6689		-89.843750
6690		-95.703125
6691		-93.750000
6692		-97.656250
6693		-95.703125
6694		-99.609375
6695		-95.703125
6696		-99.609375
6697		-97.656250
6698		-103.515625
6699		-95.703125
6700		-101.562500
6701		-97.656250
6702		-101.562500
6703		-99.609375
6704		-101.562500
6705		-99.609375
6706		-101.562500
6707		-97.656250
6708		-99.609375
6709		-97.656250
6710		-99.609375
6711		-95.703125
6712		-99.609375
6713		-95.703125
6714		-97.656250
6715		-93.750000
6716		-99.609375
6717		-91.796875
6718		-95.703125
6719		-89.843750
6720		-91.796875
6721		-87.890625
6722		-89.843750
6723		-83.984375
6724		-85.937500
6725		-82.031250
6726		-83.984375
6727		-78.125000
6728		-80.078125
6729		-76.171875
6730		-76.171875
6731		-72.265625
6732		-74.218750
6733		-68.359375
6734		-70.312500
6735		-64.453125
6736		-66.406250
6737		-60.546875
6738		-62.500000
6739		-56.640625
6740		-56.640625
6741		-50.781250
6742		-52.734375
6743		-46.875000
6744		-48.828125
6745		-42.968750
6746		-44.921875
6747		-37.109375
6748		-39.062500
6749		-31.250000
6750		-35.156250
6751		-25.390625
6752		-31.250000
6753		-23.437500
6754		-23.437500
6755		-17.578125
6756		-19.531250
6757		-13.671875
6758		-13.671875
6759		-7.812500
6760		-9.765625
6761		-1.953125
6762		-3.906250
6763		1.953125
6764		0.000000
6765		7.812500
6766		5.859375
6767		11.718750
6768		9.765625
6769		17.578125
6770		15.625000
6771		21.484375
6772		21.484375
6773		27.343750
6774		25.390625
6775		31.250000
6776		29.296875
6777		37.109375
6778		35.156250
6779		41.015625
6780		39.062500
6781		44.921875
6782		44.921875
6783		52.734375
6784		46.875000
6785		54.687500
6786		52.734375
6787		58.593750
6788		56.640625
6789		62.500000
6790		60.546875
6791		66.406250
6792		64.453125
6793		70.312500
6794		68.359375
6795		72.265625
6796		72.265625
6797		76.171875
6798		74.218750
6799		80.078125
6800		76.171875
6801		83.984375
6802		78.125000
6803		85.937500
6804		83.984375
6805		87.890625
6806		85.937500
6807		89.843750
6808		87.890625
6809		91.796875
6810		89.843750
6811		93.750000
6812		91.796875
6813		95.703125
6814		93.750000
6815		97.656250
6816		93.750000
6817		99.609375
6818		95.703125
6819		101.562500
6820		97.656250
6821		101.562500
6822		99.609375
6823		101.562500
6824		99.609375
6825		101.562500
6826		99.609375
6827		103.515625
6828		99.609375
6829		103.515625
6830		99.609375
6831		103.515625
6832		97.656250
6833		103.515625
6834		97.656250
6835		103.515625
6836		97.656250
6837		103.515625
6838		97.656250
6839		101.562500
6840		97.656250
6841		99.609375
6842		95.703125
6843		99.609375
6844		93.750000
6845		97.656250
6846		91.796875
6847		95.703125
6848		89.843750
6849		93.750000
6850		87.890625
6851		93.750000
6852		85.937500
6853		89.843750
6854		83.984375
6855		87.890625
6856		80.078125
6857		83.984375
6858		78.125000
6859		82.031250
6860		74.218750
6861		78.125000
6862		70.312500
6863		76.171875
6864		66.406250
6865		72.265625
6866		62.500000
6867		68.359375
6868		58.593750
6869		64.453125
6870		54.687500
6871		60.546875
6872		50.781250
6873		56.640625
6874		46.875000
6875		52.734375
6876		42.968750
6877		48.828125
6878		39.062500
6879		42.968750
6880		33.203125
6881		39.062500
6882		29.296875
6883		35.156250
6884		23.437500
6885		31.250000
6886		17.578125
6887		25.390625
6888		13.671875
6889		19.531250
6890		7.812500
6891		15.625000
6892		3.906250
6893		9.765625
6894		-1.953125
6895		5.859375
6896		-5.859375
6897		0.000000
6898		-11.718750
6899		-5.859375
6900		-17.578125
6901		-9.765625
6902		-21.484375
6903		-15.625000
6904		-27.343750
6905		-21.484375
6906		-31.250000
6907		-25.390625
6908		-37.109375
6909		-31.250000
6910		-41.015625
6911		-35.156250
6912		-46.875000
6913		-41.015625
6914		-50.781250
6915		-44.921875
6916		-54.687500
6917		-48.828125
6918		-60.546875
6919		-54.687500
6920		-64.453125
6921		-58.593750
6922		-68.359375
6923		-62.500000
6924		-72.265625
6925		-66.406250
6926		-74.218750
6927		-70.312500
6928		-78.125000
6929		-74.218750
6930		-82.031250
6931		-78.125000
6932		-85.937500
6933		-80.078125
6934		-87.890625
6935		-82.031250
6936		-89.843750
6937		-85.937500
6938		-91.796875
6939		-87.890625
6940		-93.750000
6941		-91.796875
6942		-95.703125
6943		-93.750000
6944		-97.656250
6945		-93.750000
6946		-99.609375
6947		-95.703125
6948		-99.609375
6949		-97.656250
6950		-99.609375
6951		-97.656250
6952		-101.562500
6953		-97.656250
6954		-101.562500
6955		-97.656250
6956		-101.562500
6957		-99.609375
6958		-101.562500
6959		-99.609375
6960		-101.562500
6961		-97.656250
6962		-99.609375
6963		-97.656250
6964		-97.656250
6965		-95.703125
6966		-97.656250
6967		-93.750000
6968		-95.703125
6969		-91.796875
6970		-93.750000
6971		-89.843750
6972		-91.796875
6973		-87.890625
6974		-89.843750
6975		-85.937500
6976		-85.937500
6977		-82.031250
6978		-83.984375
6979		-78.125000
6980		-80.078125
6981		-76.171875
6982		-78.125000
6983		-72.265625
6984		-74.218750
6985		-68.359375
6986		-70.312500
6987		-64.453125
6988		-66.406250
6989		-60.546875
6990		-62.500000
6991		-56.640625
6992		-56.640625
6993		-50.781250
6994		-52.734375
6995		-46.875000
6996		-48.828125
6997		-42.968750
6998		-44.921875
6999		-37.109375
7000		-39.062500
7001		-33.203125
7002		-33.203125
7003		-27.343750
7004		-29.296875
7005		-23.437500
7006		-25.390625
7007		-17.578125
7008		-19.531250
7009		-11.718750
7010		-13.671875
7011		-7.812500
7012		-9.765625
7013		-1.953125
7014		-3.906250
7015		1.953125
7016		1.953125
7017		7.812500
7018		5.859375
7019		13.671875
7020		11.718750
7021		17.578125
7022		15.625000
7023		23.437500
7024		21.484375
7025		27.343750
7026		25.390625
7027		33.203125
7028		31.250000
7029		37.109375
7030		35.156250
7031		41.015625
7032		41.015625
7033		46.875000
7034		44.921875
7035		50.781250
7036		48.828125
7037		54.687500
7038		52.734375
7039		58.593750
7040		56.640625
7041		62.500000
7042		60.546875
7043		66.406250
7044		64.453125
7045		70.312500
7046		68.359375
7047		74.218750
7048		72.265625
7049		76.171875
7050		74.218750
7051		80.078125
7052		78.125000
7053		83.984375
7054		80.078125
7055		83.984375
7056		83.984375
7057		87.890625
7058		85.937500
7059		89.843750
7060		87.890625
7061		91.796875
7062		89.843750
7063		93.750000
7064		91.796875
7065		95.703125
7066		93.750000
7067		97.656250
7068		95.703125
7069		97.656250
7070		97.656250
7071		99.609375
7072		97.656250
7073		101.562500
7074		97.656250
7075		101.562500
7076		99.609375
7077		101.562500
7078		99.609375
7079		101.562500
7080		99.609375
7081		101.562500
7082		99.609375
7083		101.562500
7084		99.609375
7085		101.562500
7086		99.609375
7087		101.562500
7088		97.656250
7089		101.562500
7090		97.656250
7091		99.609375
7092		95.703125
7093		99.609375
7094		95.703125
7095		97.656250
7096		93.750000
7097		97.656250
7098		91.796875
7099		95.703125
7100		89.843750
7101		93.750000
7102		87.890625
7103		91.796875
7104		85.937500
7105		89.843750
7106		82.031250
7107		87.890625
7108		78.125000
7109		83.984375
7110		76.171875
7111		82.031250
7112		74.218750
7113		78.125000
7114		70.312500
7115		74.218750
7116		66.406250
7117		72.265625
7118		62.500000
7119		68.359375
7120		58.593750
7121		64.453125
7122		54.687500
7123		60.546875
7124		50.781250
7125		56.640625
7126		46.875000
7127		52.734375
7128		41.015625
7129		48.828125
7130		37.109375
7131		42.968750
7132		33.203125
7133		39.062500
7134		27.343750
7135		35.156250
7136		23.437500
7137		29.296875
7138		17.578125
7139		25.390625
7140		13.671875
7141		19.531250
7142		7.812500
7143		13.671875
7144		3.906250
7145		9.765625
7146		-1.953125
7147		3.906250
7148		-7.812500
7149		0.000000
7150		-11.718750
7151		-5.859375
7152		-17.578125
7153		-11.718750
7154		-23.437500
7155		-15.625000
7156		-27.343750
7157		-21.484375
7158		-33.203125
7159		-25.390625
7160		-37.109375
7161		-31.250000
7162		-42.968750
7163		-35.156250
7164		-46.875000
7165		-41.015625
7166		-52.734375
7167		-44.921875
7168		-56.640625
7169		-48.828125
7170		-60.546875
7171		-54.687500
7172		-64.453125
7173		-58.593750
7174		-68.359375
7175		-62.500000
7176		-72.265625
7177		-66.406250
7178		-76.171875
7179		-70.312500
7180		-80.078125
7181		-74.218750
7182		-82.031250
7183		-78.125000
7184		-85.937500
7185		-80.078125
7186		-87.890625
7187		-83.984375
7188		-89.843750
7189		-85.937500
7190		-91.796875
7191		-87.890625
7192		-95.703125
7193		-91.796875
7194		-95.703125
7195		-93.750000
7196		-97.656250
7197		-95.703125
7198		-99.609375
7199		-95.703125
7200		-99.609375
7201		-97.656250
7202		-101.562500
7203		-97.656250
7204		-101.562500
7205		-97.656250
7206		-101.562500
7207		-99.609375
7208		-101.562500
7209		-99.609375
7210		-101.562500
7211		-97.656250
7212		-99.609375
7213		-97.656250
7214		-99.609375
7215		-97.656250
7216		-99.609375
7217		-95.703125
7218		-97.656250
7219		-93.750000
7220		-95.703125
7221		-91.796875
7222		-93.750000
7223		-89.843750
7224		-91.796875
7225		-87.890625
7226		-89.843750
7227		-83.984375
7228		-85.937500
7229		-82.031250
7230		-83.984375
7231		-80.078125
7232		-80.078125
7233		-76.171875
7234		-78.125000
7235		-72.265625
7236		-74.218750
7237		-68.359375
7238		-70.312500
7239		-64.453125
7240		-66.406250
7241		-60.546875
7242		-62.500000
7243		-56.640625
7244		-58.593750
7245		-52.734375
7246		-52.734375
7247		-46.875000
7248		-48.828125
7249		-42.968750
7250		-42.968750
7251		-37.109375
7252		-39.062500
7253		-33.203125
7254		-35.156250
7255		-27.343750
7256		-29.296875
7257		-23.437500
7258		-23.437500
7259		-17.578125
7260		-19.531250
7261		-13.671875
7262		-13.671875
7263		-7.812500
7264		-9.765625
7265		-1.953125
7266		-3.906250
7267		1.953125
7268		0.000000
7269		7.812500
7270		5.859375
7271		11.718750
7272		11.718750
7273		17.578125
7274		15.625000
7275		23.437500
7276		21.484375
7277		27.343750
7278		25.390625
7279		31.250000
7280		31.250000
7281		37.109375
7282		35.156250
7283		41.015625
7284		39.062500
7285		44.921875
7286		44.921875
7287		50.781250
7288		48.828125
7289		54.687500
7290		52.734375
7291		58.593750
7292		56.640625
7293		62.500000
7294		60.546875
7295		66.406250
7296		64.453125
7297		70.312500
7298		68.359375
7299		72.265625
7300		72.265625
7301		76.171875
7302		74.218750
7303		78.125000
7304		78.125000
7305		82.031250
7306		80.078125
7307		85.937500
7308		83.984375
7309		87.890625
7310		85.937500
7311		89.843750
7312		87.890625
7313		91.796875
7314		89.843750
7315		93.750000
7316		91.796875
7317		95.703125
7318		93.750000
7319		97.656250
7320		95.703125
7321		97.656250
7322		95.703125
7323		99.609375
7324		97.656250
7325		99.609375
7326		97.656250
7327		101.562500
7328		99.609375
7329		101.562500
7330		99.609375
7331		101.562500
7332		99.609375
7333		101.562500
7334		99.609375
7335		101.562500
7336		99.609375
7337		101.562500
7338		99.609375
7339		101.562500
7340		97.656250
7341		101.562500
7342		97.656250
7343		99.609375
7344		95.703125
7345		99.609375
7346		95.703125
7347		97.656250
7348		93.750000
7349		95.703125
7350		91.796875
7351		95.703125
7352		89.843750
7353		93.750000
7354		87.890625
7355		91.796875
7356		83.984375
7357		89.843750
7358		82.031250
7359		85.937500
7360		80.078125
7361		83.984375
7362		76.171875
7363		80.078125
7364		72.265625
7365		78.125000
7366		70.312500
7367		74.218750
7368		66.406250
7369		70.312500
7370		62.500000
7371		68.359375
7372		58.593750
7373		64.453125
7374		54.687500
7375		60.546875
7376		50.781250
7377		56.640625
7378		46.875000
7379		50.781250
7380		41.015625
7381		46.875000
7382		37.109375
7383		42.968750
7384		33.203125
7385		39.062500
7386		27.343750
7387		33.203125
7388		23.437500
7389		29.296875
7390		17.578125
7391		23.437500
7392		11.718750
7393		19.531250
7394		7.812500
7395		13.671875
7396		1.953125
7397		7.812500
7398		-1.953125
7399		3.906250
7400		-7.812500
7401		-1.953125
7402		-13.671875
7403		-5.859375
7404		-17.578125
7405		-11.718750
7406		-23.437500
7407		-17.578125
7408		-27.343750
7409		-21.484375
7410		-33.203125
7411		-25.390625
7412		-39.062500
7413		-31.250000
7414		-42.968750
7415		-37.109375
7416		-46.875000
7417		-41.015625
7418		-52.734375
7419		-46.875000
7420		-56.640625
7421		-50.781250
7422		-60.546875
7423		-54.687500
7424		-64.453125
7425		-58.593750
7426		-68.359375
7427		-62.500000
7428		-72.265625
7429		-68.359375
7430		-76.171875
7431		-70.312500
7432		-80.078125
7433		-74.218750
7434		-82.031250
7435		-78.125000
7436		-85.937500
7437		-82.031250
7438		-87.890625
7439		-83.984375
7440		-91.796875
7441		-85.937500
7442		-93.750000
7443		-89.843750
7444		-95.703125
7445		-91.796875
7446		-97.656250
7447		-93.750000
7448		-97.656250
7449		-93.750000
7450		-99.609375
7451		-95.703125
7452		-99.609375
7453		-97.656250
7454		-101.562500
7455		-97.656250
7456		-101.562500
7457		-99.609375
7458		-101.562500
7459		-99.609375
7460		-101.562500
7461		-99.609375
7462		-101.562500
7463		-99.609375
7464		-101.562500
7465		-97.656250
7466		-99.609375
7467		-97.656250
7468		-99.609375
7469		-95.703125
7470		-97.656250
7471		-93.750000
7472		-95.703125
7473		-91.796875
7474		-93.750000
7475		-89.843750
7476		-91.796875
7477		-87.890625
7478		-89.843750
7479		-85.937500
7480		-85.937500
7481		-82.031250
7482		-83.984375
7483		-80.078125
7484		-80.078125
7485		-76.171875
7486		-78.125000
7487		-72.265625
7488		-74.218750
7489		-68.359375
7490		-70.312500
7491		-64.453125
7492		-66.406250
7493		-60.546875
7494		-62.500000
7495		-56.640625
7496		-58.593750
7497		-50.781250
7498		-52.734375
7499		-46.875000
7500		-48.828125
7501		-42.968750
7502		-44.921875
7503		-37.109375
7504		-39.062500
7505		-33.203125
7506		-35.156250
7507		-27.343750
7508		-29.296875
7509		-23.437500
7510		-25.390625
7511		-17.578125
7512		-19.531250
7513		-13.671875
7514		-13.671875
7515		-7.812500
7516		-9.765625
7517		-1.953125
7518		-3.906250
7519		1.953125
7520		0.000000
7521		7.812500
7522		5.859375
7523		11.718750
7524		11.718750
7525		17.578125
7526		15.625000
7527		23.437500
7528		21.484375
7529		27.343750
7530		25.390625
7531		31.250000
7532		29.296875
7533		37.109375
7534		35.156250
7535		41.015625
7536		39.062500
7537		44.921875
7538		44.921875
7539		50.781250
7540		48.828125
7541		54.687500
7542		52.734375
7543		58.593750
7544		56.640625
7545		62.500000
7546		60.546875
7547		66.406250
7548		64.453125
7549		70.312500
7550		68.359375
7551		72.265625
7552		72.265625
7553		76.171875
7554		74.218750
7555		80.078125
7556		78.125000
7557		82.031250
7558		80.078125
7559		83.984375
7560		83.984375
7561		87.890625
7562		85.937500
7563		89.843750
7564		87.890625
7565		91.796875
7566		89.843750
7567		93.750000
7568		91.796875
7569		95.703125
7570		93.750000
7571		97.656250
7572		95.703125
7573		97.656250
7574		95.703125
7575		99.609375
7576		97.656250
7577		99.609375
7578		97.656250
7579		101.562500
7580		99.609375
7581		101.562500
7582		99.609375
7583		101.562500
7584		99.609375
7585		101.562500
7586		99.609375
7587		101.562500
7588		99.609375
7589		101.562500
7590		99.609375
7591		101.562500
7592		97.656250
7593		101.562500
7594		97.656250
7595		99.609375
7596		95.703125
7597		99.609375
7598		93.750000
7599		97.656250
7600		91.796875
7601		95.703125
7602		91.796875
7603		93.750000
7604		89.843750
7605		93.750000
7606		85.937500
7607		91.796875
7608		83.984375
7609		87.890625
7610		82.031250
7611		85.937500
7612		78.125000
7613		83.984375
7614		76.171875
7615		80.078125
7616		72.265625
7617		78.125000
7618		70.312500
7619		74.218750
7620		66.406250
7621		70.312500
7622		62.500000
7623		66.406250
7624		58.593750
7625		64.453125
7626		54.687500
7627		58.593750
7628		50.781250
7629		54.687500
7630		44.921875
7631		50.781250
7632		41.015625
7633		46.875000
7634		37.109375
7635		42.968750
7636		31.250000
7637		37.109375
7638		27.343750
7639		33.203125
7640		21.484375
7641		29.296875
7642		17.578125
7643		23.437500
7644		11.718750
7645		17.578125
7646		7.812500
7647		13.671875
7648		1.953125
7649		7.812500
7650		-3.906250
7651		3.906250
7652		-7.812500
7653		-1.953125
7654		-13.671875
7655		-7.812500
7656		-17.578125
7657		-11.718750
7658		-23.437500
7659		-17.578125
7660		-29.296875
7661		-21.484375
7662		-33.203125
7663		-27.343750
7664		-39.062500
7665		-33.203125
7666		-42.968750
7667		-37.109375
7668		-48.828125
7669		-41.015625
7670		-52.734375
7671		-46.875000
7672		-56.640625
7673		-50.781250
7674		-60.546875
7675		-54.687500
7676		-66.406250
7677		-58.593750
7678		-68.359375
7679		-64.453125
7680		-72.265625
7681		-68.359375
7682		-76.171875
7683		-72.265625
7684		-80.078125
7685		-74.218750
7686		-83.984375
7687		-78.125000
7688		-85.937500
7689		-82.031250
7690		-87.890625
7691		-83.984375
7692		-91.796875
7693		-87.890625
7694		-95.703125
7695		-89.843750
7696		-95.703125
7697		-91.796875
7698		-99.609375
7699		-93.750000
7700		-99.609375
7701		-95.703125
7702		-99.609375
7703		-97.656250
7704		-101.562500
7705		-97.656250
7706		-101.562500
7707		-99.609375
7708		-101.562500
7709		-99.609375
7710		-103.515625
7711		-97.656250
7712		-103.515625
7713		-99.609375
7714		-101.562500
7715		-97.656250
7716		-103.515625
7717		-97.656250
7718		-101.562500
7719		-93.750000
7720		-99.609375
7721		-95.703125
7722		-97.656250
7723		-93.750000
7724		-95.703125
7725		-91.796875
7726		-93.750000
7727		-89.843750
7728		-91.796875
7729		-85.937500
7730		-89.843750
7731		-83.984375
7732		-87.890625
7733		-80.078125
7734		-83.984375
7735		-78.125000
7736		-82.031250
7737		-74.218750
7738		-78.125000
7739		-72.265625
7740		-74.218750
7741		-68.359375
7742		-70.312500
7743		-64.453125
7744		-66.406250
7745		-58.593750
7746		-62.500000
7747		-54.687500
7748		-58.593750
7749		-50.781250
7750		-54.687500
7751		-46.875000
7752		-48.828125
7753		-41.015625
7754		-42.968750
7755		-37.109375
7756		-39.062500
7757		-33.203125
7758		-33.203125
7759		-25.390625
7760		-31.250000
7761		-23.437500
7762		-25.390625
7763		-17.578125
7764		-19.531250
7765		-11.718750
7766		-15.625000
7767		-7.812500
7768		-9.765625
7769		-1.953125
7770		-5.859375
7771		3.906250
7772		1.953125
7773		7.812500
7774		5.859375
7775		13.671875
7776		9.765625
7777		19.531250
7778		15.625000
7779		23.437500
7780		21.484375
7781		27.343750
7782		25.390625
7783		33.203125
7784		27.343750
7785		37.109375
7786		33.203125
7787		42.968750
7788		41.015625
7789		46.875000
7790		44.921875
7791		50.781250
7792		48.828125
7793		54.687500
7794		50.781250
7795		60.546875
7796		56.640625
7797		62.500000
7798		60.546875
7799		66.406250
7800		64.453125
7801		72.265625
7802		68.359375
7803		76.171875
7804		72.265625
7805		76.171875
7806		74.218750
7807		80.078125
7808		78.125000
7809		83.984375
7810		78.125000
7811		87.890625
7812		83.984375
7813		87.890625
7814		85.937500
7815		89.843750
7816		87.890625
7817		95.703125
7818		87.890625
7819		95.703125
7820		89.843750
7821		97.656250
7822		93.750000
7823		97.656250
7824		95.703125
7825		99.609375
7826		95.703125
7827		103.515625
7828		95.703125
7829		103.515625
7830		97.656250
7831		101.562500
7832		99.609375
7833		103.515625
7834		95.703125
7835		105.468750
7836		97.656250
7837		105.468750
7838		99.609375
7839		101.562500
7840		99.609375
7841		101.562500
7842		97.656250
7843		103.515625
7844		95.703125
7845		105.468750
7846		95.703125
7847		101.562500
7848		95.703125
7849		99.609375
7850		89.843750
7851		101.562500
7852		91.796875
7853		99.609375
7854		89.843750
7855		97.656250
7856		89.843750
7857		93.750000
7858		85.937500
7859		91.796875
7860		82.031250
7861		89.843750
7862		82.031250
7863		87.890625
7864		78.125000
7865		83.984375
7866		74.218750
7867		82.031250
7868		70.312500
7869		80.078125
7870		66.406250
7871		76.171875
7872		64.453125
7873		70.312500
7874		62.500000
7875		68.359375
7876		56.640625
7877		64.453125
7878		52.734375
7879		62.500000
7880		50.781250
7881		56.640625
7882		44.921875
7883		50.781250
7884		37.109375
7885		48.828125
7886		33.203125
7887		42.968750
7888		31.250000
7889		37.109375
7890		27.343750
7891		33.203125
7892		21.484375
7893		29.296875
7894		15.625000
7895		25.390625
7896		11.718750
7897		19.531250
7898		7.812500
7899		13.671875
7900		0.000000
7901		9.765625
7902		-3.906250
7903		5.859375
7904		-7.812500
7905		0.000000
7906		-13.671875
7907		-5.859375
7908		-19.531250
7909		-11.718750
7910		-25.390625
7911		-15.625000
7912		-29.296875
7913		-19.531250
7914		-33.203125
7915		-25.390625
7916		-39.062500
7917		-31.250000
7918		-44.921875
7919		-33.203125
7920		-48.828125
7921		-41.015625
7922		-52.734375
7923		-46.875000
7924		-56.640625
7925		-50.781250
7926		-60.546875
7927		-54.687500
7928		-66.406250
7929		-58.593750
7930		-70.312500
7931		-62.500000
7932		-72.265625
7933		-68.359375
7934		-80.078125
7935		-70.312500
7936		-80.078125
7937		-70.312500
7938		-83.984375
7939		-76.171875
7940		-85.937500
7941		-82.031250
7942		-89.843750
7943		-83.984375
7944		-93.750000
7945		-85.937500
7946		-93.750000
7947		-87.890625
7948		-95.703125
7949		-91.796875
7950		-97.656250
7951		-91.796875
7952		-101.562500
7953		-91.796875
7954		-101.562500
7955		-93.750000
7956		-99.609375
7957		-97.656250
7958		-101.562500
7959		-97.656250
7960		-101.562500
7961		-97.656250
7962		-105.468750
7963		-95.703125
7964		-101.562500
7965		-97.656250
7966		-101.562500
7967		-97.656250
7968		-101.562500
7969		-97.656250
7970		-99.609375
7971		-93.750000
7972		-99.609375
7973		-95.703125
7974		-97.656250
7975		-93.750000
7976		-95.703125
7977		-91.796875
7978		-95.703125
7979		-87.890625
7980		-93.750000
7981		-87.890625
7982		-89.843750
7983		-83.984375
7984		-87.890625
7985		-80.078125
7986		-83.984375
7987		-78.125000
7988		-80.078125
7989		-74.218750
7990		-76.171875
7991		-72.265625
7992		-74.218750
7993		-68.359375
7994		-70.312500
7995		-64.453125
7996		-64.453125
7997		-56.640625
7998		-62.500000
7999		-54.687500
8000		-56.640625
8001		-50.781250
8002		-54.687500
8003		-46.875000
8004		-48.828125
8005		-41.015625
8006		-42.968750
8007		-37.109375
8008		-39.062500
8009		-31.250000
8010		-33.203125
8011		-27.343750
8012		-29.296875
8013		-21.484375
8014		-23.437500
8015		-17.578125
8016		-17.578125
8017		-11.718750
8018		-13.671875
8019		-5.859375
8020		-7.812500
8021		-1.953125
8022		-3.906250
8023		3.906250
8024		1.953125
8025		7.812500
8026		7.812500
8027		13.671875
8028		11.718750
8029		19.531250
8030		17.578125
8031		23.437500
8032		21.484375
8033		27.343750
8034		27.343750
8035		33.203125
8036		31.250000
8037		37.109375
8038		35.156250
8039		42.968750
8040		41.015625
8041		46.875000
8042		44.921875
8043		50.781250
8044		48.828125
8045		56.640625
8046		52.734375
8047		60.546875
8048		56.640625
8049		64.453125
8050		60.546875
8051		68.359375
8052		64.453125
8053		72.265625
8054		68.359375
8055		74.218750
8056		70.312500
8057		76.171875
8058		76.171875
8059		80.078125
8060		78.125000
8061		83.984375
8062		80.078125
8063		87.890625
8064		82.031250
8065		87.890625
8066		85.937500
8067		91.796875
8068		87.890625
8069		93.750000
8070		89.843750
8071		95.703125
8072		89.843750
8073		95.703125
8074		93.750000
8075		97.656250
8076		95.703125
8077		99.609375
8078		95.703125
8079		101.562500
8080		97.656250
8081		101.562500
8082		97.656250
8083		103.515625
8084		97.656250
8085		103.515625
8086		99.609375
8087		103.515625
8088		99.609375
8089		103.515625
8090		99.609375
8091		103.515625
8092		99.609375
8093		101.562500
8094		97.656250
8095		103.515625
8096		97.656250
8097		101.562500
8098		95.703125
8099		101.562500
8100		95.703125
8101		99.609375
8102		93.750000
8103		99.609375
8104		91.796875
8105		97.656250
8106		91.796875
8107		95.703125
8108		89.843750
8109		93.750000
8110		85.937500
8111		91.796875
8112		83.984375
8113		89.843750
8114		82.031250
8115		87.890625
8116		78.125000
8117		83.984375
8118		74.218750
8119		80.078125
8120		72.265625
8121		78.125000
8122		68.359375
8123		76.171875
8124		66.406250
8125		72.265625
8126		62.500000
8127		66.406250
8128		56.640625
8129		64.453125
8130		54.687500
8131		60.546875
8132		50.781250
8133		56.640625
8134		44.921875
8135		52.734375
8136		41.015625
8137		46.875000
8138		35.156250
8139		42.968750
8140		31.250000
8141		39.062500
8142		27.343750
8143		33.203125
8144		21.484375
8145		29.296875
8146		17.578125
8147		23.437500
8148		11.718750
8149		19.531250
8150		5.859375
8151		13.671875
8152		1.953125
8153		9.765625
8154		-3.906250
8155		3.906250
8156		-7.812500
8157		-1.953125
8158		-13.671875
8159		-7.812500
8160		-17.578125
8161		-11.718750
8162		-23.437500
8163		-15.625000
8164		-29.296875
8165		-21.484375
8166		-35.156250
8167		-27.343750
8168		-39.062500
8169		-29.296875
8170		-44.921875
8171		-37.109375
8172		-48.828125
8173		-41.015625
8174		-52.734375
8175		-46.875000
8176		-56.640625
8177		-50.781250
8178		-60.546875
8179		-54.687500
8180		-66.406250
8181		-58.593750
8182		-70.312500
8183		-64.453125
8184		-72.265625
8185		-66.406250
8186		-76.171875
8187		-72.265625
8188		-80.078125
8189		-74.218750
8190		-82.031250
8191		-78.125000
8192		-85.937500
8193		-82.031250
8194		-89.843750
8195		-83.984375
8196		-91.796875
8197		-85.937500
8198		-93.750000
8199		-89.843750
8200		-97.656250
8201		-89.843750
8202		-97.656250
8203		-93.750000
8204		-99.609375
8205		-95.703125
8206		-101.562500
8207		-95.703125
8208		-101.562500
8209		-97.656250
8210		-101.562500
8211		-97.656250
8212		-101.562500
8213		-97.656250
8214		-101.562500
8215		-99.609375
8216		-101.562500
8217		-97.656250
8218		-103.515625
8219		-97.656250
8220		-101.562500
8221		-97.656250
8222		-99.609375
8223		-95.703125
8224		-99.609375
8225		-95.703125
8226		-97.656250
8227		-93.750000
8228		-95.703125
8229		-91.796875
8230		-93.750000
8231		-89.843750
8232		-91.796875
8233		-87.890625
8234		-89.843750
8235		-83.984375
8236		-87.890625
8237		-82.031250
8238		-83.984375
8239		-78.125000
8240		-80.078125
8241		-74.218750
8242		-76.171875
8243		-72.265625
8244		-72.265625
8245		-68.359375
8246		-70.312500
8247		-64.453125
8248		-66.406250
8249		-58.593750
8250		-60.546875
8251		-54.687500
8252		-58.593750
8253		-50.781250
8254		-52.734375
8255		-44.921875
8256		-46.875000
8257		-41.015625
8258		-42.968750
8259		-37.109375
8260		-39.062500
8261		-31.250000
8262		-33.203125
8263		-27.343750
8264		-29.296875
8265		-21.484375
8266		-23.437500
8267		-17.578125
8268		-17.578125
8269		-11.718750
8270		-13.671875
8271		-7.812500
8272		-9.765625
8273		-1.953125
8274		-3.906250
8275		3.906250
8276		1.953125
8277		7.812500
8278		7.812500
8279		13.671875
8280		11.718750
8281		19.531250
8282		17.578125
8283		23.437500
8284		21.484375
8285		29.296875
8286		27.343750
8287		33.203125
8288		31.250000
8289		37.109375
8290		37.109375
8291		42.968750
8292		41.015625
8293		46.875000
8294		44.921875
8295		50.781250
8296		48.828125
8297		54.687500
8298		52.734375
8299		58.593750
8300		56.640625
8301		64.453125
8302		62.500000
8303		66.406250
8304		64.453125
8305		70.312500
8306		68.359375
8307		74.218750
8308		70.312500
8309		76.171875
8310		76.171875
8311		80.078125
8312		78.125000
8313		83.984375
8314		82.031250
8315		85.937500
8316		83.984375
8317		87.890625
8318		85.937500
8319		89.843750
8320		87.890625
8321		93.750000
8322		91.796875
8323		93.750000
8324		91.796875
8325		95.703125
8326		93.750000
8327		97.656250
8328		95.703125
8329		99.609375
8330		95.703125
8331		99.609375
8332		97.656250
8333		101.562500
8334		99.609375
8335		101.562500
8336		99.609375
8337		101.562500
8338		99.609375
8339		103.515625
8340		99.609375
8341		103.515625
8342		99.609375
8343		103.515625
8344		99.609375
8345		101.562500
8346		99.609375
8347		101.562500
8348		97.656250
8349		101.562500
8350		97.656250
8351		101.562500
8352		95.703125
8353		99.609375
8354		95.703125
8355		97.656250
8356		93.750000
8357		97.656250
8358		89.843750
8359		95.703125
8360		89.843750
8361		93.750000
8362		85.937500
8363		89.843750
8364		83.984375
8365		89.843750
8366		82.031250
8367		85.937500
8368		80.078125
8369		83.984375
8370		76.171875
8371		80.078125
8372		72.265625
8373		78.125000
8374		70.312500
8375		74.218750
8376		66.406250
8377		70.312500
8378		62.500000
8379		66.406250
8380		58.593750
8381		64.453125
8382		54.687500
8383		60.546875
8384		48.828125
8385		56.640625
8386		44.921875
8387		50.781250
8388		41.015625
8389		46.875000
8390		35.156250
8391		42.968750
8392		31.250000
8393		39.062500
8394		27.343750
8395		33.203125
8396		21.484375
8397		27.343750
8398		17.578125
8399		23.437500
8400		11.718750
8401		17.578125
8402		7.812500
8403		13.671875
8404		1.953125
8405		7.812500
8406		-3.906250
8407		3.906250
8408		-7.812500
8409		-1.953125
8410		-13.671875
8411		-7.812500
8412		-19.531250
8413		-11.718750
8414		-23.437500
8415		-15.625000
8416		-29.296875
8417		-21.484375
8418		-33.203125
8419		-27.343750
8420		-39.062500
8421		-33.203125
8422		-42.968750
8423		-37.109375
8424		-48.828125
8425		-41.015625
8426		-52.734375
8427		-44.921875
8428		-56.640625
8429		-50.781250
8430		-60.546875
8431		-54.687500
8432		-64.453125
8433		-58.593750
8434		-68.359375
8435		-64.453125
8436		-74.218750
8437		-68.359375
8438		-76.171875
8439		-72.265625
8440		-80.078125
8441		-74.218750
8442		-83.984375
8443		-78.125000
8444		-85.937500
8445		-82.031250
8446		-89.843750
8447		-83.984375
8448		-91.796875
8449		-87.890625
8450		-93.750000
8451		-89.843750
8452		-95.703125
8453		-91.796875
8454		-97.656250
8455		-93.750000
8456		-99.609375
8457		-93.750000
8458		-99.609375
8459		-95.703125
8460		-99.609375
8461		-97.656250
8462		-101.562500
8463		-97.656250
8464		-101.562500
8465		-97.656250
8466		-101.562500
8467		-97.656250
8468		-101.562500
8469		-97.656250
8470		-101.562500
8471		-97.656250
8472		-99.609375
8473		-97.656250
8474		-99.609375
8475		-95.703125
8476		-99.609375
8477		-95.703125
8478		-95.703125
8479		-93.750000
8480		-95.703125
8481		-91.796875
8482		-93.750000
8483		-89.843750
8484		-91.796875
8485		-85.937500
8486		-87.890625
8487		-83.984375
8488		-85.937500
8489		-82.031250
8490		-82.031250
8491		-78.125000
8492		-80.078125
8493		-74.218750
8494		-76.171875
8495		-70.312500
8496		-72.265625
8497		-68.359375
8498		-68.359375
8499		-62.500000
8500		-64.453125
8501		-58.593750
8502		-60.546875
8503		-54.687500
8504		-56.640625
8505		-50.781250
8506		-52.734375
8507		-46.875000
8508		-46.875000
8509		-41.015625
8510		-42.968750
8511		-37.109375
8512		-37.109375
8513		-31.250000
8514		-33.203125
8515		-27.343750
8516		-27.343750
8517		-21.484375
8518		-23.437500
8519		-15.625000
8520		-17.578125
8521		-11.718750
8522		-13.671875
8523		-5.859375
8524		-7.812500
8525		-1.953125
8526		-1.953125
8527		3.906250
8528		1.953125
8529		9.765625
8530		7.812500
8531		15.625000
8532		11.718750
8533		19.531250
8534		17.578125
8535		23.437500
8536		21.484375
8537		29.296875
8538		27.343750
8539		33.203125
8540		31.250000
8541		37.109375
8542		37.109375
8543		42.968750
8544		41.015625
8545		46.875000
8546		44.921875
8547		50.781250
8548		48.828125
8549		56.640625
8550		54.687500
8551		58.593750
8552		58.593750
8553		64.453125
8554		62.500000
8555		66.406250
8556		66.406250
8557		72.265625
8558		68.359375
8559		74.218750
8560		72.265625
8561		78.125000
8562		76.171875
8563		80.078125
8564		78.125000
8565		83.984375
8566		82.031250
8567		85.937500
8568		83.984375
8569		89.843750
8570		85.937500
8571		89.843750
8572		87.890625
8573		93.750000
8574		91.796875
8575		95.703125
8576		91.796875
8577		97.656250
8578		95.703125
8579		97.656250
8580		95.703125
8581		99.609375
8582		95.703125
8583		99.609375
8584		97.656250
8585		101.562500
8586		99.609375
8587		101.562500
8588		99.609375
8589		103.515625
8590		99.609375
8591		103.515625
8592		99.609375
8593		103.515625
8594		99.609375
8595		103.515625
8596		99.609375
8597		101.562500
8598		97.656250
8599		103.515625
8600		97.656250
8601		101.562500
8602		97.656250
8603		101.562500
8604		95.703125
8605		99.609375
8606		93.750000
8607		99.609375
8608		93.750000
8609		97.656250
8610		91.796875
8611		95.703125
8612		89.843750
8613		93.750000
8614		85.937500
8615		91.796875
8616		83.984375
8617		89.843750
8618		82.031250
8619		87.890625
8620		80.078125
8621		83.984375
8622		76.171875
8623		80.078125
8624		72.265625
8625		78.125000
8626		68.359375
8627		74.218750
8628		66.406250
8629		70.312500
8630		62.500000
8631		66.406250
8632		58.593750
8633		64.453125
8634		54.687500
8635		60.546875
8636		48.828125
8637		54.687500
8638		44.921875
8639		50.781250
8640		41.015625
8641		46.875000
8642		37.109375
8643		42.968750
8644		31.250000
8645		39.062500
8646		27.343750
8647		33.203125
8648		21.484375
8649		27.343750
8650		17.578125
8651		23.437500
8652		11.718750
8653		17.578125
8654		7.812500
8655		13.671875
8656		1.953125
8657		7.812500
8658		-3.906250
8659		3.906250
8660		-7.812500
8661		-1.953125
8662		-13.671875
8663		-7.812500
8664		-17.578125
8665		-11.718750
8666		-23.437500
8667		-17.578125
8668		-29.296875
8669		-21.484375
8670		-33.203125
8671		-25.390625
8672		-39.062500
8673		-33.203125
8674		-42.968750
8675		-37.109375
8676		-48.828125
8677		-41.015625
8678		-52.734375
8679		-46.875000
8680		-56.640625
8681		-50.781250
8682		-60.546875
8683		-54.687500
8684		-66.406250
8685		-60.546875
8686		-68.359375
8687		-62.500000
8688		-74.218750
8689		-68.359375
8690		-76.171875
8691		-70.312500
8692		-80.078125
8693		-74.218750
8694		-83.984375
8695		-78.125000
8696		-85.937500
8697		-82.031250
8698		-89.843750
8699		-83.984375
8700		-91.796875
8701		-85.937500
8702		-93.750000
8703		-89.843750
8704		-95.703125
8705		-91.796875
8706		-97.656250
8707		-93.750000
8708		-99.609375
8709		-95.703125
8710		-101.562500
8711		-95.703125
8712		-99.609375
8713		-97.656250
8714		-101.562500
8715		-97.656250
8716		-101.562500
8717		-97.656250
8718		-101.562500
8719		-97.656250
8720		-101.562500
8721		-97.656250
8722		-101.562500
8723		-97.656250
8724		-99.609375
8725		-97.656250
8726		-99.609375
8727		-95.703125
8728		-97.656250
8729		-93.750000
8730		-97.656250
8731		-93.750000
8732		-95.703125
8733		-89.843750
8734		-93.750000
8735		-87.890625
8736		-91.796875
8737		-85.937500
8738		-87.890625
8739		-83.984375
8740		-85.937500
8741		-80.078125
8742		-82.031250
8743		-78.125000
8744		-80.078125
8745		-74.218750
8746		-76.171875
8747		-70.312500
8748		-72.265625
8749		-66.406250
8750		-70.312500
8751		-62.500000
8752		-64.453125
8753		-58.593750
8754		-60.546875
8755		-54.687500
8756		-56.640625
8757		-48.828125
8758		-50.781250
8759		-44.921875
8760		-46.875000
8761		-41.015625
8762		-42.968750
8763		-37.109375
8764		-37.109375
8765		-31.250000
8766		-33.203125
8767		-25.390625
8768		-27.343750
8769		-21.484375
8770		-23.437500
8771		-15.625000
8772		-17.578125
8773		-9.765625
8774		-13.671875
8775		-5.859375
8776		-7.812500
8777		0.000000
8778		-1.953125
8779		3.906250
8780		1.953125
8781		9.765625
8782		7.812500
8783		13.671875
8784		11.718750
8785		19.531250
8786		17.578125
8787		23.437500
8788		23.437500
8789		29.296875
8790		27.343750
8791		33.203125
8792		31.250000
8793		39.062500
8794		37.109375
8795		44.921875
8796		41.015625
8797		46.875000
8798		44.921875
8799		50.781250
8800		50.781250
8801		54.687500
8802		54.687500
8803		60.546875
8804		58.593750
8805		64.453125
8806		60.546875
8807		68.359375
8808		66.406250
8809		70.312500
8810		70.312500
8811		74.218750
8812		72.265625
8813		78.125000
8814		76.171875
8815		80.078125
8816		78.125000
8817		83.984375
8818		80.078125
8819		85.937500
8820		83.984375
8821		87.890625
8822		85.937500
8823		89.843750
8824		87.890625
8825		93.750000
8826		89.843750
8827		93.750000
8828		93.750000
8829		97.656250
8830		93.750000
8831		97.656250
8832		95.703125
8833		99.609375
8834		97.656250
8835		101.562500
8836		97.656250
8837		101.562500
8838		99.609375
8839		101.562500
8840		99.609375
8841		103.515625
8842		99.609375
8843		103.515625
8844		99.609375
8845		103.515625
8846		99.609375
8847		103.515625
8848		99.609375
8849		101.562500
8850		99.609375
8851		101.562500
8852		97.656250
8853		101.562500
8854		97.656250
8855		101.562500
8856		95.703125
8857		99.609375
8858		93.750000
8859		99.609375
8860		93.750000
8861		97.656250
8862		91.796875
8863		95.703125
8864		89.843750
8865		93.750000
8866		87.890625
8867		91.796875
8868		83.984375
8869		89.843750
8870		82.031250
8871		85.937500
8872		78.125000
8873		83.984375
8874		76.171875
8875		80.078125
8876		72.265625
8877		78.125000
8878		68.359375
8879		74.218750
8880		66.406250
8881		72.265625
8882		62.500000
8883		68.359375
8884		56.640625
8885		64.453125
8886		52.734375
8887		58.593750
8888		48.828125
8889		54.687500
8890		44.921875
8891		50.781250
8892		41.015625
8893		46.875000
8894		37.109375
8895		42.968750
8896		31.250000
8897		39.062500
8898		27.343750
8899		33.203125
8900		21.484375
8901		27.343750
8902		15.625000
8903		23.437500
8904		11.718750
8905		17.578125
8906		5.859375
8907		13.671875
8908		1.953125
8909		7.812500
8910		-3.906250
8911		3.906250
8912		-9.765625
8913		-1.953125
8914		-13.671875
8915		-7.812500
8916		-19.531250
8917		-11.718750
8918		-23.437500
8919		-17.578125
8920		-29.296875
8921		-21.484375
8922		-33.203125
8923		-27.343750
8924		-39.062500
8925		-33.203125
8926		-42.968750
8927		-37.109375
8928		-48.828125
8929		-41.015625
8930		-52.734375
8931		-46.875000
8932		-56.640625
8933		-50.781250
8934		-62.500000
8935		-54.687500
8936		-64.453125
8937		-58.593750
8938		-68.359375
8939		-64.453125
8940		-72.265625
8941		-68.359375
8942		-76.171875
8943		-72.265625
8944		-80.078125
8945		-74.218750
8946		-82.031250
8947		-78.125000
8948		-85.937500
8949		-82.031250
8950		-87.890625
8951		-83.984375
8952		-91.796875
8953		-85.937500
8954		-93.750000
8955		-89.843750
8956		-95.703125
8957		-91.796875
8958		-97.656250
8959		-93.750000
8960		-97.656250
8961		-93.750000
8962		-99.609375
8963		-95.703125
8964		-99.609375
8965		-95.703125
8966		-101.562500
8967		-97.656250
8968		-101.562500
8969		-97.656250
8970		-101.562500
8971		-97.656250
8972		-101.562500
8973		-97.656250
8974		-101.562500
8975		-97.656250
8976		-99.609375
8977		-97.656250
8978		-99.609375
8979		-95.703125
8980		-97.656250
8981		-93.750000
8982		-95.703125
8983		-93.750000
8984		-93.750000
8985		-89.843750
8986		-93.750000
8987		-87.890625
8988		-91.796875
8989		-85.937500
8990		-87.890625
8991		-83.984375
8992		-85.937500
8993		-80.078125
8994		-82.031250
8995		-78.125000
8996		-80.078125
8997		-72.265625
8998		-76.171875
8999		-70.312500
9000		-72.265625
9001		-66.406250
9002		-68.359375
9003		-62.500000
9004		-64.453125
9005		-58.593750
9006		-60.546875
9007		-54.687500
9008		-56.640625
9009		-48.828125
9010		-52.734375
9011		-44.921875
9012		-46.875000
9013		-41.015625
9014		-42.968750
9015		-35.156250
9016		-37.109375
9017		-31.250000
9018		-33.203125
9019		-25.390625
9020		-27.343750
9021		-21.484375
9022		-23.437500
9023		-15.625000
9024		-17.578125
9025		-11.718750
9026		-11.718750
9027		-5.859375
9028		-7.812500
9029		0.000000
9030		-1.953125
9031		3.906250
9032		3.906250
9033		9.765625
9034		7.812500
9035		15.625000
9036		13.671875
9037		19.531250
9038		17.578125
9039		25.390625
9040		23.437500
9041		29.296875
9042		27.343750
9043		33.203125
9044		33.203125
9045		39.062500
9046		37.109375
9047		42.968750
9048		41.015625
9049		46.875000
9050		46.875000
9051		52.734375
9052		50.781250
9053		56.640625
9054		54.687500
9055		60.546875
9056		58.593750
9057		64.453125
9058		62.500000
9059		68.359375
9060		66.406250
9061		72.265625
9062		68.359375
9063		74.218750
9064		72.265625
9065		78.125000
9066		76.171875
9067		80.078125
9068		80.078125
9069		83.984375
9070		82.031250
9071		87.890625
9072		83.984375
9073		89.843750
9074		87.890625
9075		91.796875
9076		89.843750
9077		93.750000
9078		91.796875
9079		95.703125
9080		93.750000
9081		97.656250
9082		95.703125
9083		97.656250
9084		97.656250
9085		99.609375
9086		95.703125
9087		101.562500
9088		99.609375
9089		101.562500
9090		99.609375
9091		103.515625
9092		99.609375
9093		101.562500
9094		99.609375
9095		103.515625
9096		99.609375
9097		103.515625
9098		99.609375
9099		103.515625
9100		99.609375
9101		103.515625
9102		97.656250
9103		103.515625
9104		99.609375
9105		101.562500
9106		97.656250
9107		101.562500
9108		95.703125
9109		99.609375
9110		95.703125
9111		99.609375
9112		93.750000
9113		97.656250
9114		89.843750
9115		95.703125
9116		89.843750
9117		93.750000
9118		87.890625
9119		91.796875
9120		83.984375
9121		89.843750
9122		82.031250
9123		87.890625
9124		80.078125
9125		83.984375
9126		76.171875
9127		80.078125
9128		72.265625
9129		78.125000
9130		70.312500
9131		74.218750
9132		66.406250
9133		72.265625
9134		62.500000
9135		68.359375
9136		58.593750
9137		64.453125
9138		52.734375
9139		60.546875
9140		50.781250
9141		54.687500
9142		44.921875
9143		50.781250
9144		41.015625
9145		46.875000
9146		37.109375
9147		42.968750
9148		31.250000
9149		37.109375
9150		27.343750
9151		33.203125
9152		21.484375
9153		27.343750
9154		15.625000
9155		23.437500
9156		11.718750
9157		17.578125
9158		7.812500
9159		13.671875
9160		1.953125
9161		7.812500
9162		-3.906250
9163		3.906250
9164		-9.765625
9165		-1.953125
9166		-13.671875
9167		-5.859375
9168		-17.578125
9169		-11.718750
9170		-23.437500
9171		-17.578125
9172		-29.296875
9173		-21.484375
9174		-33.203125
9175		-27.343750
9176		-39.062500
9177		-31.250000
9178		-42.968750
9179		-37.109375
9180		-48.828125
9181		-41.015625
9182		-52.734375
9183		-44.921875
9184		-56.640625
9185		-50.781250
9186		-60.546875
9187		-54.687500
9188		-64.453125
9189		-58.593750
9190		-70.312500
9191		-64.453125
9192		-72.265625
9193		-68.359375
9194		-76.171875
9195		-70.312500
9196		-80.078125
9197		-74.218750
9198		-83.984375
9199		-78.125000
9200		-85.937500
9201		-82.031250
9202		-87.890625
9203		-83.984375
9204		-91.796875
9205		-85.937500
9206		-93.750000
9207		-89.843750
9208		-95.703125
9209		-91.796875
9210		-97.656250
9211		-93.750000
9212		-97.656250
9213		-95.703125
9214		-99.609375
9215		-95.703125
9216		-99.609375
9217		-95.703125
9218		-101.562500
9219		-97.656250
9220		-101.562500
9221		-97.656250
9222		-101.562500
9223		-97.656250
9224		-101.562500
9225		-97.656250
9226		-101.562500
9227		-97.656250
9228		-99.609375
9229		-97.656250
9230		-99.609375
9231		-95.703125
9232		-97.656250
9233		-93.750000
9234		-95.703125
9235		-93.750000
9236		-93.750000
9237		-89.843750
9238		-93.750000
9239		-87.890625
9240		-89.843750
9241		-85.937500
9242		-87.890625
9243		-83.984375
9244		-85.937500
9245		-80.078125
9246		-82.031250
9247		-78.125000
9248		-78.125000
9249		-74.218750
9250		-76.171875
9251		-70.312500
9252		-72.265625
9253		-66.406250
9254		-68.359375
9255		-62.500000
9256		-64.453125
9257		-58.593750
9258		-60.546875
9259		-54.687500
9260		-56.640625
9261		-48.828125
9262		-50.781250
9263		-44.921875
9264		-46.875000
9265		-41.015625
9266		-42.968750
9267		-35.156250
9268		-37.109375
9269		-31.250000
9270		-33.203125
9271		-25.390625
9272		-27.343750
9273		-21.484375
9274		-21.484375
9275		-15.625000
9276		-17.578125
9277		-11.718750
9278		-11.718750
9279		-5.859375
9280		-7.812500
9281		0.000000
9282		-1.953125
9283		3.906250
9284		3.906250
9285		9.765625
9286		7.812500
9287		13.671875
9288		11.718750
9289		19.531250
9290		17.578125
9291		25.390625
9292		23.437500
9293		29.296875
9294		27.343750
9295		35.156250
9296		33.203125
9297		39.062500
9298		37.109375
9299		42.968750
9300		41.015625
9301		46.875000
9302		46.875000
9303		50.781250
9304		50.781250
9305		56.640625
9306		54.687500
9307		60.546875
9308		58.593750
9309		64.453125
9310		62.500000
9311		68.359375
9312		66.406250
9313		70.312500
9314		70.312500
9315		74.218750
9316		72.265625
9317		78.125000
9318		76.171875
9319		80.078125
9320		80.078125
9321		83.984375
9322		82.031250
9323		85.937500
9324		83.984375
9325		89.843750
9326		85.937500
9327		91.796875
9328		89.843750
9329		93.750000
9330		89.843750
9331		95.703125
9332		93.750000
9333		97.656250
9334		93.750000
9335		97.656250
9336		95.703125
9337		99.609375
9338		95.703125
9339		101.562500
9340		97.656250
9341		101.562500
9342		99.609375
9343		101.562500
9344		99.609375
9345		103.515625
9346		99.609375
9347		103.515625
9348		99.609375
9349		103.515625
9350		99.609375
9351		103.515625
9352		99.609375
9353		101.562500
9354		97.656250
9355		101.562500
9356		97.656250
9357		101.562500
9358		97.656250
9359		101.562500
9360		95.703125
9361		101.562500
9362		93.750000
9363		97.656250
9364		93.750000
9365		95.703125
9366		91.796875
9367		95.703125
9368		89.843750
9369		93.750000
9370		87.890625
9371		91.796875
9372		83.984375
9373		89.843750
9374		82.031250
9375		85.937500
9376		78.125000
9377		83.984375
9378		76.171875
9379		80.078125
9380		72.265625
9381		78.125000
9382		68.359375
9383		74.218750
9384		64.453125
9385		70.312500
9386		62.500000
9387		66.406250
9388		58.593750
9389		62.500000
9390		52.734375
9391		58.593750
9392		48.828125
9393		56.640625
9394		44.921875
9395		50.781250
9396		41.015625
9397		46.875000
9398		35.156250
9399		42.968750
9400		31.250000
9401		37.109375
9402		25.390625
9403		33.203125
9404		21.484375
9405		27.343750
9406		15.625000
9407		23.437500
9408		11.718750
9409		17.578125
9410		5.859375
9411		13.671875
9412		0.000000
9413		7.812500
9414		-3.906250
9415		1.953125
9416		-9.765625
9417		-1.953125
9418		-13.671875
9419		-7.812500
9420		-19.531250
9421		-13.671875
9422		-23.437500
9423		-17.578125
9424		-29.296875
9425		-23.437500
9426		-35.156250
9427		-27.343750
9428		-39.062500
9429		-31.250000
9430		-42.968750
9431		-37.109375
9432		-48.828125
9433		-42.968750
9434		-52.734375
9435		-46.875000
9436		-56.640625
9437		-50.781250
9438		-62.500000
9439		-56.640625
9440		-66.406250
9441		-60.546875
9442		-70.312500
9443		-64.453125
9444		-72.265625
9445		-68.359375
9446		-78.125000
9447		-72.265625
9448		-80.078125
9449		-74.218750
9450		-83.984375
9451		-78.125000
9452		-85.937500
9453		-82.031250
9454		-89.843750
9455		-83.984375
9456		-91.796875
9457		-85.937500
9458		-93.750000
9459		-89.843750
9460		-95.703125
9461		-91.796875
9462		-97.656250
9463		-93.750000
9464		-99.609375
9465		-93.750000
9466		-99.609375
9467		-95.703125
9468		-101.562500
9469		-97.656250
9470		-101.562500
9471		-97.656250
9472		-101.562500
9473		-97.656250
9474		-101.562500
9475		-97.656250
9476		-101.562500
9477		-97.656250
9478		-99.609375
9479		-97.656250
9480		-99.609375
9481		-97.656250
9482		-99.609375
9483		-95.703125
9484		-97.656250
9485		-93.750000
9486		-95.703125
9487		-91.796875
9488		-93.750000
9489		-91.796875
9490		-93.750000
9491		-87.890625
9492		-89.843750
9493		-85.937500
9494		-87.890625
9495		-83.984375
9496		-83.984375
9497		-80.078125
9498		-82.031250
9499		-76.171875
9500		-78.125000
9501		-74.218750
9502		-76.171875
9503		-70.312500
9504		-72.265625
9505		-66.406250
9506		-68.359375
9507		-62.500000
9508		-64.453125
9509		-58.593750
9510		-60.546875
9511		-54.687500
9512		-56.640625
9513		-48.828125
9514		-50.781250
9515		-44.921875
9516		-46.875000
9517		-39.062500
9518		-41.015625
9519		-35.156250
9520		-37.109375
9521		-29.296875
9522		-31.250000
9523		-25.390625
9524		-27.343750
9525		-19.531250
9526		-21.484375
9527		-15.625000
9528		-17.578125
9529		-9.765625
9530		-11.718750
9531		-5.859375
9532		-7.812500
9533		0.000000
9534		-1.953125
9535		5.859375
9536		3.906250
9537		9.765625
9538		7.812500
9539		15.625000
9540		13.671875
9541		21.484375
9542		17.578125
9543		25.390625
9544		23.437500
9545		29.296875
9546		29.296875
9547		35.156250
9548		31.250000
9549		39.062500
9550		37.109375
9551		44.921875
9552		42.968750
9553		48.828125
9554		46.875000
9555		52.734375
9556		50.781250
9557		56.640625
9558		54.687500
9559		60.546875
9560		58.593750
9561		64.453125
9562		62.500000
9563		68.359375
9564		66.406250
9565		72.265625
9566		70.312500
9567		74.218750
9568		72.265625
9569		78.125000
9570		76.171875
9571		82.031250
9572		80.078125
9573		83.984375
9574		82.031250
9575		85.937500
9576		83.984375
9577		89.843750
9578		85.937500
9579		91.796875
9580		89.843750
9581		93.750000
9582		91.796875
9583		95.703125
9584		93.750000
9585		97.656250
9586		93.750000
9587		97.656250
9588		95.703125
9589		99.609375
9590		97.656250
9591		101.562500
9592		97.656250
9593		101.562500
9594		99.609375
9595		103.515625
9596		99.609375
9597		103.515625
9598		97.656250
9599		103.515625
9600		97.656250
9601		105.468750
9602		99.609375
9603		103.515625
9604		99.609375
9605		101.562500
9606		99.609375
9607		101.562500
9608		97.656250
9609		101.562500
9610		97.656250
9611		101.562500
9612		95.703125
9613		99.609375
9614		93.750000
9615		99.609375
9616		93.750000
9617		97.656250
9618		89.843750
9619		97.656250
9620		89.843750
9621		93.750000
9622		85.937500
9623		91.796875
9624		82.031250
9625		89.843750
9626		80.078125
9627		87.890625
9628		78.125000
9629		83.984375
9630		74.218750
9631		80.078125
9632		70.312500
9633		78.125000
9634		66.406250
9635		76.171875
9636		66.406250
9637		74.218750
9638		60.546875
9639		66.406250
9640		54.687500
9641		62.500000
9642		50.781250
9643		60.546875
9644		46.875000
9645		56.640625
9646		44.921875
9647		50.781250
9648		39.062500
9649		46.875000
9650		35.156250
9651		42.968750
9652		31.250000
9653		39.062500
9654		27.343750
9655		33.203125
9656		21.484375
9657		27.343750
9658		15.625000
9659		23.437500
9660		9.765625
9661		19.531250
9662		5.859375
9663		13.671875
9664		0.000000
9665		7.812500
9666		-5.859375
9667		3.906250
9668		-11.718750
9669		0.000000
9670		-13.671875
9671		-7.812500
9672		-19.531250
9673		-11.718750
9674		-25.390625
9675		-17.578125
9676		-31.250000
9677		-21.484375
9678		-37.109375
9679		-27.343750
9680		-39.062500
9681		-33.203125
9682		-44.921875
9683		-37.109375
9684		-50.781250
9685		-41.015625
9686		-52.734375
9687		-44.921875
9688		-56.640625
9689		-50.781250
9690		-62.500000
9691		-54.687500
9692		-68.359375
9693		-56.640625
9694		-72.265625
9695		-62.500000
9696		-76.171875
9697		-66.406250
9698		-80.078125
9699		-70.312500
9700		-82.031250
9701		-72.265625
9702		-83.984375
9703		-76.171875
9704		-85.937500
9705		-82.031250
9706		-87.890625
9707		-83.984375
9708		-93.750000
9709		-85.937500
9710		-95.703125
9711		-87.890625
9712		-97.656250
9713		-89.843750
9714		-99.609375
9715		-91.796875
9716		-99.609375
9717		-93.750000
9718		-101.562500
9719		-93.750000
9720		-101.562500
9721		-95.703125
9722		-101.562500
9723		-97.656250
9724		-101.562500
9725		-97.656250
9726		-101.562500
9727		-97.656250
9728		-101.562500
9729		-97.656250
9730		-101.562500
9731		-97.656250
9732		-101.562500
9733		-95.703125
9734		-99.609375
9735		-93.750000
9736		-99.609375
9737		-93.750000
9738		-95.703125
9739		-91.796875
9740		-93.750000
9741		-89.843750
9742		-93.750000
9743		-87.890625
9744		-91.796875
9745		-83.984375
9746		-89.843750
9747		-82.031250
9748		-85.937500
9749		-78.125000
9750		-83.984375
9751		-76.171875
9752		-80.078125
9753		-70.312500
9754		-76.171875
9755		-70.312500
9756		-72.265625
9757		-66.406250
9758		-68.359375
9759		-60.546875
9760		-66.406250
9761		-56.640625
9762		-62.500000
9763		-52.734375
9764		-58.593750
9765		-46.875000
9766		-52.734375
9767		-42.968750
9768		-48.828125
9769		-39.062500
9770		-42.968750
9771		-35.156250
9772		-37.109375
9773		-29.296875
9774		-33.203125
9775		-23.437500
9776		-29.296875
9777		-19.531250
9778		-23.437500
9779		-13.671875
9780		-17.578125
9781		-7.812500
9782		-11.718750
9783		-1.953125
9784		-7.812500
9785		1.953125
9786		-3.906250
9787		5.859375
9788		3.906250
9789		9.765625
9790		7.812500
9791		15.625000
9792		11.718750
9793		21.484375
9794		15.625000
9795		25.390625
9796		21.484375
9797		31.250000
9798		25.390625
9799		37.109375
9800		31.250000
9801		41.015625
9802		35.156250
9803		44.921875
9804		41.015625
9805		46.875000
9806		46.875000
9807		52.734375
9808		50.781250
9809		58.593750
9810		52.734375
9811		62.500000
9812		58.593750
9813		66.406250
9814		62.500000
9815		70.312500
9816		64.453125
9817		74.218750
9818		68.359375
9819		76.171875
9820		70.312500
9821		80.078125
9822		76.171875
9823		80.078125
9824		78.125000
9825		83.984375
9826		80.078125
9827		87.890625
9828		82.031250
9829		89.843750
9830		85.937500
9831		93.750000
9832		85.937500
9833		95.703125
9834		89.843750
9835		95.703125
9836		89.843750
9837		99.609375
9838		93.750000
9839		97.656250
9840		95.703125
9841		99.609375
9842		95.703125
9843		103.515625
9844		95.703125
9845		103.515625
9846		97.656250
9847		105.468750
9848		97.656250
9849		105.468750
9850		97.656250
9851		105.468750
9852		97.656250
9853		105.468750
9854		97.656250
9855		105.468750
9856		99.609375
9857		101.562500
9858		97.656250
9859		101.562500
9860		95.703125
9861		103.515625
9862		95.703125
9863		101.562500
9864		93.750000
9865		101.562500
9866		91.796875
9867		99.609375
9868		91.796875
9869		99.609375
9870		89.843750
9871		95.703125
9872		89.843750
9873		93.750000
9874		87.890625
9875		89.843750
9876		82.031250
9877		89.843750
9878		80.078125
9879		87.890625
9880		76.171875
9881		85.937500
9882		74.218750
9883		82.031250
9884		70.312500
9885		80.078125
9886		66.406250
9887		76.171875
9888		64.453125
9889		72.265625
9890		62.500000
9891		66.406250
9892		56.640625
9893		62.500000
9894		50.781250
9895		60.546875
9896		46.875000
9897		56.640625
9898		42.968750
9899		52.734375
9900		37.109375
9901		48.828125
9902		33.203125
9903		42.968750
9904		31.250000
9905		41.015625
9906		25.390625
9907		33.203125
9908		21.484375
9909		27.343750
9910		13.671875
9911		23.437500
9912		9.765625
9913		19.531250
9914		3.906250
9915		15.625000
9916		0.000000
9917		9.765625
9918		-5.859375
9919		3.906250
9920		-11.718750
9921		0.000000
9922		-13.671875
9923		-5.859375
9924		-19.531250
9925		-13.671875
9926		-25.390625
9927		-17.578125
9928		-31.250000
9929		-21.484375
9930		-37.109375
9931		-25.390625
9932		-41.015625
9933		-31.250000
9934		-46.875000
9935		-35.156250
9936		-50.781250
9937		-41.015625
9938		-52.734375
9939		-44.921875
9940		-56.640625
9941		-52.734375
9942		-60.546875
9943		-56.640625
9944		-68.359375
9945		-56.640625
9946		-70.312500
9947		-60.546875
9948		-74.218750
9949		-66.406250
9950		-78.125000
9951		-68.359375
9952		-82.031250
9953		-74.218750
9954		-85.937500
9955		-76.171875
9956		-85.937500
9957		-82.031250
9958		-87.890625
9959		-83.984375
9960		-93.750000
9961		-85.937500
9962		-95.703125
9963		-87.890625
9964		-97.656250
9965		-89.843750
9966		-99.609375
9967		-89.843750
9968		-101.562500
9969		-91.796875
9970		-101.562500
9971		-93.750000
9972		-101.562500
9973		-95.703125
9974		-99.609375
9975		-97.656250
9976		-103.515625
9977		-95.703125
9978		-103.515625
9979		-95.703125
9980		-103.515625
9981		-95.703125
9982		-103.515625
9983		-95.703125
9984		-103.515625
9985		-95.703125
9986		-101.562500
9987		-93.750000
9988		-99.609375
9989		-93.750000
9990		-95.703125
9991		-93.750000
9992		-93.750000
9993		-91.796875
9994		-95.703125
9995		-85.937500
9996		-93.750000
9997		-83.984375
9998		-89.843750
9999		-82.031250
10000		-87.890625
