Channel              :		CH1
Frequency            :		1.771kHz
Period               :		0.565ms
PK-PK                :		189.5mV
Probe attenuation    :		1X
Voltage per ADC value:		0.122070mV
Time interval        :		2.00000us

index		CH1_Voltage(mV)
1		99.609375
2		99.609375
3		91.796875
4		97.656250
5		91.796875
6		97.656250
7		89.843750
8		97.656250
9		89.843750
10		95.703125
11		89.843750
12		91.796875
13		87.890625
14		91.796875
15		83.984375
16		91.796875
17		82.031250
18		89.843750
19		80.078125
20		89.843750
21		78.125000
22		87.890625
23		76.171875
24		83.984375
25		74.218750
26		83.984375
27		74.218750
28		80.078125
29		72.265625
30		76.171875
31		66.406250
32		74.218750
33		64.453125
34		72.265625
35		62.500000
36		68.359375
37		58.593750
38		66.406250
39		54.687500
40		62.500000
41		50.781250
42		60.546875
43		48.828125
44		56.640625
45		46.875000
46		52.734375
47		42.968750
48		48.828125
49		37.109375
50		46.875000
51		35.156250
52		42.968750
53		29.296875
54		39.062500
55		27.343750
56		35.156250
57		23.437500
58		33.203125
59		17.578125
60		27.343750
61		17.578125
62		23.437500
63		11.718750
64		17.578125
65		5.859375
66		13.671875
67		3.906250
68		11.718750
69		-1.953125
70		7.812500
71		-5.859375
72		3.906250
73		-9.765625
74		0.000000
75		-13.671875
76		-3.906250
77		-15.625000
78		-7.812500
79		-19.531250
80		-13.671875
81		-23.437500
82		-17.578125
83		-29.296875
84		-19.531250
85		-33.203125
86		-23.437500
87		-37.109375
88		-27.343750
89		-41.015625
90		-31.250000
91		-44.921875
92		-35.156250
93		-46.875000
94		-39.062500
95		-48.828125
96		-42.968750
97		-52.734375
98		-46.875000
99		-56.640625
100		-48.828125
101		-60.546875
102		-50.781250
103		-62.500000
104		-54.687500
105		-64.453125
106		-58.593750
107		-68.359375
108		-58.593750
109		-70.312500
110		-62.500000
111		-72.265625
112		-64.453125
113		-72.265625
114		-68.359375
115		-76.171875
116		-70.312500
117		-78.125000
118		-70.312500
119		-80.078125
120		-72.265625
121		-82.031250
122		-74.218750
123		-82.031250
124		-76.171875
125		-83.984375
126		-76.171875
127		-83.984375
128		-78.125000
129		-82.031250
130		-80.078125
131		-82.031250
132		-80.078125
133		-85.937500
134		-78.125000
135		-85.937500
136		-80.078125
137		-85.937500
138		-80.078125
139		-85.937500
140		-78.125000
141		-83.984375
142		-78.125000
143		-83.984375
144		-76.171875
145		-82.031250
146		-76.171875
147		-80.078125
148		-76.171875
149		-80.078125
150		-74.218750
151		-80.078125
152		-72.265625
153		-78.125000
154		-70.312500
155		-76.171875
156		-68.359375
157		-74.218750
158		-66.406250
159		-72.265625
160		-62.500000
161		-70.312500
162		-62.500000
163		-64.453125
164		-60.546875
165		-62.500000
166		-56.640625
167		-62.500000
168		-52.734375
169		-58.593750
170		-50.781250
171		-56.640625
172		-46.875000
173		-52.734375
174		-42.968750
175		-48.828125
176		-39.062500
177		-44.921875
178		-37.109375
179		-41.015625
180		-35.156250
181		-37.109375
182		-31.250000
183		-33.203125
184		-25.390625
185		-31.250000
186		-23.437500
187		-27.343750
188		-17.578125
189		-23.437500
190		-13.671875
191		-19.531250
192		-9.765625
193		-15.625000
194		-5.859375
195		-11.718750
196		-3.906250
197		-5.859375
198		0.000000
199		-1.953125
200		5.859375
201		0.000000
202		9.765625
203		5.859375
204		13.671875
205		7.812500
206		17.578125
207		11.718750
208		21.484375
209		15.625000
210		25.390625
211		19.531250
212		27.343750
213		25.390625
214		31.250000
215		29.296875
216		35.156250
217		33.203125
218		41.015625
219		37.109375
220		42.968750
221		39.062500
222		46.875000
223		42.968750
224		50.781250
225		46.875000
226		54.687500
227		50.781250
228		56.640625
229		52.734375
230		58.593750
231		58.593750
232		62.500000
233		60.546875
234		68.359375
235		62.500000
236		70.312500
237		64.453125
238		72.265625
239		66.406250
240		76.171875
241		70.312500
242		78.125000
243		72.265625
244		80.078125
245		76.171875
246		82.031250
247		80.078125
248		82.031250
249		82.031250
250		85.937500
251		80.078125
252		89.843750
253		83.984375
254		89.843750
255		83.984375
256		91.796875
257		85.937500
258		93.750000
259		87.890625
260		95.703125
261		89.843750
262		95.703125
263		91.796875
264		95.703125
265		91.796875
266		95.703125
267		91.796875
268		99.609375
269		91.796875
270		99.609375
271		93.750000
272		99.609375
273		93.750000
274		99.609375
275		93.750000
276		99.609375
277		93.750000
278		99.609375
279		95.703125
280		99.609375
281		95.703125
282		97.656250
283		93.750000
284		97.656250
285		91.796875
286		99.609375
287		91.796875
288		99.609375
289		89.843750
290		97.656250
291		89.843750
292		97.656250
293		87.890625
294		95.703125
295		85.937500
296		93.750000
297		85.937500
298		89.843750
299		85.937500
300		89.843750
301		82.031250
302		89.843750
303		80.078125
304		87.890625
305		78.125000
306		85.937500
307		76.171875
308		83.984375
309		72.265625
310		80.078125
311		70.312500
312		78.125000
313		70.312500
314		76.171875
315		66.406250
316		72.265625
317		62.500000
318		68.359375
319		58.593750
320		66.406250
321		56.640625
322		64.453125
323		52.734375
324		62.500000
325		48.828125
326		58.593750
327		44.921875
328		54.687500
329		42.968750
330		50.781250
331		41.015625
332		44.921875
333		35.156250
334		41.015625
335		31.250000
336		41.015625
337		29.296875
338		37.109375
339		23.437500
340		33.203125
341		19.531250
342		29.296875
343		15.625000
344		25.390625
345		11.718750
346		21.484375
347		9.765625
348		15.625000
349		5.859375
350		11.718750
351		0.000000
352		7.812500
353		-3.906250
354		3.906250
355		-7.812500
356		1.953125
357		-11.718750
358		-1.953125
359		-15.625000
360		-7.812500
361		-19.531250
362		-9.765625
363		-23.437500
364		-15.625000
365		-25.390625
366		-21.484375
367		-33.203125
368		-25.390625
369		-35.156250
370		-27.343750
371		-41.015625
372		-31.250000
373		-42.968750
374		-35.156250
375		-46.875000
376		-37.109375
377		-50.781250
378		-41.015625
379		-52.734375
380		-44.921875
381		-54.687500
382		-48.828125
383		-56.640625
384		-52.734375
385		-60.546875
386		-54.687500
387		-64.453125
388		-56.640625
389		-68.359375
390		-58.593750
391		-70.312500
392		-60.546875
393		-72.265625
394		-64.453125
395		-74.218750
396		-66.406250
397		-74.218750
398		-68.359375
399		-76.171875
400		-72.265625
401		-80.078125
402		-74.218750
403		-80.078125
404		-72.265625
405		-82.031250
406		-74.218750
407		-82.031250
408		-76.171875
409		-83.984375
410		-76.171875
411		-83.984375
412		-78.125000
413		-83.984375
414		-78.125000
415		-83.984375
416		-80.078125
417		-83.984375
418		-80.078125
419		-85.937500
420		-78.125000
421		-83.984375
422		-78.125000
423		-83.984375
424		-78.125000
425		-83.984375
426		-76.171875
427		-83.984375
428		-76.171875
429		-82.031250
430		-74.218750
431		-78.125000
432		-74.218750
433		-76.171875
434		-74.218750
435		-76.171875
436		-70.312500
437		-76.171875
438		-68.359375
439		-74.218750
440		-66.406250
441		-72.265625
442		-64.453125
443		-70.312500
444		-62.500000
445		-66.406250
446		-58.593750
447		-64.453125
448		-58.593750
449		-58.593750
450		-54.687500
451		-56.640625
452		-48.828125
453		-54.687500
454		-46.875000
455		-52.734375
456		-42.968750
457		-50.781250
458		-41.015625
459		-44.921875
460		-37.109375
461		-41.015625
462		-33.203125
463		-39.062500
464		-31.250000
465		-33.203125
466		-27.343750
467		-29.296875
468		-23.437500
469		-25.390625
470		-17.578125
471		-23.437500
472		-13.671875
473		-19.531250
474		-9.765625
475		-15.625000
476		-5.859375
477		-11.718750
478		-1.953125
479		-7.812500
480		1.953125
481		-3.906250
482		3.906250
483		1.953125
484		7.812500
485		5.859375
486		13.671875
487		7.812500
488		17.578125
489		13.671875
490		21.484375
491		15.625000
492		25.390625
493		19.531250
494		29.296875
495		23.437500
496		33.203125
497		27.343750
498		35.156250
499		33.203125
500		39.062500
501		37.109375
502		42.968750
503		39.062500
504		48.828125
505		42.968750
506		50.781250
507		44.921875
508		54.687500
509		48.828125
510		58.593750
511		52.734375
512		62.500000
513		56.640625
514		64.453125
515		60.546875
516		66.406250
517		64.453125
518		68.359375
519		64.453125
520		74.218750
521		68.359375
522		76.171875
523		70.312500
524		78.125000
525		72.265625
526		80.078125
527		76.171875
528		82.031250
529		78.125000
530		85.937500
531		80.078125
532		85.937500
533		83.984375
534		87.890625
535		85.937500
536		91.796875
537		85.937500
538		93.750000
539		87.890625
540		93.750000
541		87.890625
542		95.703125
543		89.843750
544		95.703125
545		89.843750
546		97.656250
547		91.796875
548		97.656250
549		93.750000
550		97.656250
551		95.703125
552		97.656250
553		93.750000
554		99.609375
555		93.750000
556		101.562500
557		93.750000
558		101.562500
559		93.750000
560		101.562500
561		93.750000
562		101.562500
563		93.750000
564		99.609375
565		95.703125
566		99.609375
567		95.703125
568		97.656250
569		91.796875
570		97.656250
571		91.796875
572		97.656250
573		89.843750
574		97.656250
575		87.890625
576		95.703125
577		87.890625
578		95.703125
579		85.937500
580		93.750000
581		85.937500
582		91.796875
583		83.984375
584		87.890625
585		82.031250
586		85.937500
587		78.125000
588		85.937500
589		76.171875
590		83.984375
591		74.218750
592		82.031250
593		70.312500
594		80.078125
595		68.359375
596		76.171875
597		66.406250
598		74.218750
599		64.453125
600		70.312500
601		62.500000
602		66.406250
603		56.640625
604		62.500000
605		52.734375
606		62.500000
607		48.828125
608		58.593750
609		46.875000
610		54.687500
611		42.968750
612		50.781250
613		39.062500
614		48.828125
615		37.109375
616		44.921875
617		33.203125
618		39.062500
619		27.343750
620		35.156250
621		23.437500
622		33.203125
623		19.531250
624		29.296875
625		15.625000
626		25.390625
627		11.718750
628		21.484375
629		7.812500
630		17.578125
631		5.859375
632		13.671875
633		1.953125
634		7.812500
635		-1.953125
636		3.906250
637		-7.812500
638		0.000000
639		-11.718750
640		-1.953125
641		-15.625000
642		-5.859375
643		-21.484375
644		-9.765625
645		-23.437500
646		-13.671875
647		-27.343750
648		-17.578125
649		-29.296875
650		-21.484375
651		-33.203125
652		-27.343750
653		-39.062500
654		-31.250000
655		-42.968750
656		-33.203125
657		-44.921875
658		-37.109375
659		-50.781250
660		-41.015625
661		-52.734375
662		-44.921875
663		-56.640625
664		-46.875000
665		-58.593750
666		-50.781250
667		-58.593750
668		-54.687500
669		-62.500000
670		-58.593750
671		-66.406250
672		-58.593750
673		-70.312500
674		-62.500000
675		-72.265625
676		-64.453125
677		-74.218750
678		-66.406250
679		-76.171875
680		-68.359375
681		-78.125000
682		-70.312500
683		-78.125000
684		-72.265625
685		-78.125000
686		-74.218750
687		-82.031250
688		-76.171875
689		-82.031250
690		-76.171875
691		-83.984375
692		-76.171875
693		-83.984375
694		-76.171875
695		-83.984375
696		-78.125000
697		-85.937500
698		-78.125000
699		-83.984375
700		-78.125000
701		-83.984375
702		-80.078125
703		-83.984375
704		-80.078125
705		-83.984375
706		-78.125000
707		-83.984375
708		-76.171875
709		-83.984375
710		-76.171875
711		-82.031250
712		-74.218750
713		-80.078125
714		-74.218750
715		-80.078125
716		-72.265625
717		-76.171875
718		-72.265625
719		-74.218750
720		-70.312500
721		-74.218750
722		-66.406250
723		-72.265625
724		-64.453125
725		-70.312500
726		-62.500000
727		-68.359375
728		-58.593750
729		-64.453125
730		-56.640625
731		-62.500000
732		-52.734375
733		-58.593750
734		-52.734375
735		-54.687500
736		-48.828125
737		-50.781250
738		-44.921875
739		-50.781250
740		-41.015625
741		-46.875000
742		-37.109375
743		-42.968750
744		-33.203125
745		-39.062500
746		-31.250000
747		-35.156250
748		-25.390625
749		-31.250000
750		-23.437500
751		-25.390625
752		-21.484375
753		-21.484375
754		-15.625000
755		-19.531250
756		-11.718750
757		-17.578125
758		-7.812500
759		-11.718750
760		-3.906250
761		-9.765625
762		1.953125
763		-3.906250
764		5.859375
765		0.000000
766		9.765625
767		3.906250
768		11.718750
769		9.765625
770		15.625000
771		13.671875
772		21.484375
773		15.625000
774		25.390625
775		19.531250
776		29.296875
777		23.437500
778		33.203125
779		27.343750
780		37.109375
781		31.250000
782		41.015625
783		35.156250
784		41.015625
785		41.015625
786		44.921875
787		44.921875
788		50.781250
789		44.921875
790		54.687500
791		48.828125
792		56.640625
793		52.734375
794		60.546875
795		54.687500
796		64.453125
797		58.593750
798		68.359375
799		62.500000
800		68.359375
801		66.406250
802		70.312500
803		68.359375
804		74.218750
805		70.312500
806		78.125000
807		72.265625
808		80.078125
809		74.218750
810		82.031250
811		78.125000
812		83.984375
813		78.125000
814		87.890625
815		82.031250
816		89.843750
817		82.031250
818		89.843750
819		87.890625
820		89.843750
821		87.890625
822		93.750000
823		87.890625
824		95.703125
825		89.843750
826		95.703125
827		89.843750
828		97.656250
829		91.796875
830		97.656250
831		91.796875
832		99.609375
833		91.796875
834		99.609375
835		95.703125
836		97.656250
837		95.703125
838		97.656250
839		93.750000
840		101.562500
841		93.750000
842		99.609375
843		93.750000
844		101.562500
845		93.750000
846		101.562500
847		93.750000
848		99.609375
849		91.796875
850		99.609375
851		93.750000
852		97.656250
853		93.750000
854		95.703125
855		89.843750
856		95.703125
857		89.843750
858		95.703125
859		87.890625
860		93.750000
861		85.937500
862		93.750000
863		83.984375
864		91.796875
865		82.031250
866		89.843750
867		82.031250
868		87.890625
869		80.078125
870		83.984375
871		76.171875
872		82.031250
873		74.218750
874		82.031250
875		72.265625
876		80.078125
877		68.359375
878		76.171875
879		66.406250
880		74.218750
881		62.500000
882		72.265625
883		60.546875
884		68.359375
885		58.593750
886		64.453125
887		56.640625
888		60.546875
889		50.781250
890		56.640625
891		46.875000
892		56.640625
893		42.968750
894		52.734375
895		41.015625
896		48.828125
897		37.109375
898		44.921875
899		33.203125
900		41.015625
901		31.250000
902		39.062500
903		27.343750
904		31.250000
905		21.484375
906		27.343750
907		17.578125
908		25.390625
909		13.671875
910		23.437500
911		9.765625
912		19.531250
913		5.859375
914		13.671875
915		1.953125
916		9.765625
917		-1.953125
918		5.859375
919		-5.859375
920		0.000000
921		-9.765625
922		-3.906250
923		-13.671875
924		-5.859375
925		-19.531250
926		-9.765625
927		-21.484375
928		-13.671875
929		-27.343750
930		-17.578125
931		-31.250000
932		-21.484375
933		-35.156250
934		-25.390625
935		-35.156250
936		-29.296875
937		-39.062500
938		-35.156250
939		-44.921875
940		-37.109375
941		-48.828125
942		-39.062500
943		-50.781250
944		-42.968750
945		-54.687500
946		-46.875000
947		-58.593750
948		-48.828125
949		-60.546875
950		-52.734375
951		-62.500000
952		-54.687500
953		-64.453125
954		-60.546875
955		-66.406250
956		-62.500000
957		-70.312500
958		-62.500000
959		-74.218750
960		-66.406250
961		-74.218750
962		-68.359375
963		-76.171875
964		-68.359375
965		-78.125000
966		-70.312500
967		-80.078125
968		-72.265625
969		-80.078125
970		-76.171875
971		-80.078125
972		-76.171875
973		-83.984375
974		-76.171875
975		-83.984375
976		-76.171875
977		-83.984375
978		-78.125000
979		-83.984375
980		-78.125000
981		-85.937500
982		-78.125000
983		-83.984375
984		-78.125000
985		-83.984375
986		-78.125000
987		-82.031250
988		-80.078125
989		-82.031250
990		-78.125000
991		-83.984375
992		-76.171875
993		-82.031250
994		-76.171875
995		-82.031250
996		-74.218750
997		-80.078125
998		-72.265625
999		-78.125000
1000		-70.312500
1001		-76.171875
1002		-70.312500
1003		-72.265625
1004		-68.359375
1005		-70.312500
1006		-66.406250
1007		-70.312500
1008		-62.500000
1009		-66.406250
1010		-58.593750
1011		-64.453125
1012		-56.640625
1013		-62.500000
1014		-54.687500
1015		-58.593750
1016		-50.781250
1017		-56.640625
1018		-46.875000
1019		-52.734375
1020		-46.875000
1021		-46.875000
1022		-42.968750
1023		-44.921875
1024		-37.109375
1025		-42.968750
1026		-35.156250
1027		-39.062500
1028		-31.250000
1029		-37.109375
1030		-27.343750
1031		-33.203125
1032		-23.437500
1033		-29.296875
1034		-19.531250
1035		-25.390625
1036		-17.578125
1037		-19.531250
1038		-13.671875
1039		-15.625000
1040		-7.812500
1041		-13.671875
1042		-3.906250
1043		-9.765625
1044		1.953125
1045		-3.906250
1046		3.906250
1047		0.000000
1048		9.765625
1049		3.906250
1050		11.718750
1051		7.812500
1052		15.625000
1053		13.671875
1054		17.578125
1055		17.578125
1056		23.437500
1057		21.484375
1058		27.343750
1059		23.437500
1060		33.203125
1061		27.343750
1062		35.156250
1063		31.250000
1064		39.062500
1065		33.203125
1066		42.968750
1067		37.109375
1068		46.875000
1069		41.015625
1070		48.828125
1071		46.875000
1072		52.734375
1073		50.781250
1074		56.640625
1075		50.781250
1076		60.546875
1077		54.687500
1078		62.500000
1079		58.593750
1080		66.406250
1081		60.546875
1082		70.312500
1083		64.453125
1084		72.265625
1085		66.406250
1086		74.218750
1087		72.265625
1088		76.171875
1089		74.218750
1090		78.125000
1091		74.218750
1092		82.031250
1093		78.125000
1094		83.984375
1095		80.078125
1096		87.890625
1097		82.031250
1098		87.890625
1099		82.031250
1100		91.796875
1101		85.937500
1102		91.796875
1103		85.937500
1104		91.796875
1105		89.843750
1106		93.750000
1107		89.843750
1108		95.703125
1109		89.843750
1110		97.656250
1111		91.796875
1112		97.656250
1113		91.796875
1114		99.609375
1115		93.750000
1116		99.609375
1117		93.750000
1118		99.609375
1119		93.750000
1120		99.609375
1121		95.703125
1122		99.609375
1123		95.703125
1124		97.656250
1125		93.750000
1126		101.562500
1127		93.750000
1128		101.562500
1129		93.750000
1130		99.609375
1131		93.750000
1132		99.609375
1133		91.796875
1134		99.609375
1135		91.796875
1136		97.656250
1137		91.796875
1138		95.703125
1139		91.796875
1140		93.750000
1141		85.937500
1142		93.750000
1143		85.937500
1144		93.750000
1145		83.984375
1146		91.796875
1147		82.031250
1148		89.843750
1149		80.078125
1150		87.890625
1151		78.125000
1152		85.937500
1153		78.125000
1154		83.984375
1155		76.171875
1156		80.078125
1157		72.265625
1158		78.125000
1159		68.359375
1160		78.125000
1161		66.406250
1162		74.218750
1163		62.500000
1164		72.265625
1165		60.546875
1166		68.359375
1167		56.640625
1168		66.406250
1169		54.687500
1170		62.500000
1171		52.734375
1172		56.640625
1173		48.828125
1174		54.687500
1175		42.968750
1176		52.734375
1177		41.015625
1178		48.828125
1179		37.109375
1180		44.921875
1181		33.203125
1182		42.968750
1183		29.296875
1184		39.062500
1185		25.390625
1186		33.203125
1187		23.437500
1188		31.250000
1189		19.531250
1190		25.390625
1191		13.671875
1192		21.484375
1193		7.812500
1194		17.578125
1195		5.859375
1196		13.671875
1197		1.953125
1198		11.718750
1199		-3.906250
1200		7.812500
1201		-5.859375
1202		1.953125
1203		-9.765625
1204		-1.953125
1205		-13.671875
1206		-7.812500
1207		-17.578125
1208		-11.718750
1209		-23.437500
1210		-13.671875
1211		-27.343750
1212		-17.578125
1213		-31.250000
1214		-21.484375
1215		-33.203125
1216		-25.390625
1217		-37.109375
1218		-29.296875
1219		-41.015625
1220		-33.203125
1221		-42.968750
1222		-37.109375
1223		-46.875000
1224		-41.015625
1225		-50.781250
1226		-44.921875
1227		-54.687500
1228		-44.921875
1229		-58.593750
1230		-48.828125
1231		-60.546875
1232		-52.734375
1233		-64.453125
1234		-54.687500
1235		-66.406250
1236		-58.593750
1237		-68.359375
1238		-60.546875
1239		-68.359375
1240		-64.453125
1241		-74.218750
1242		-66.406250
1243		-74.218750
1244		-68.359375
1245		-76.171875
1246		-68.359375
1247		-78.125000
1248		-72.265625
1249		-80.078125
1250		-72.265625
1251		-82.031250
1252		-74.218750
1253		-82.031250
1254		-76.171875
1255		-80.078125
1256		-78.125000
1257		-82.031250
1258		-80.078125
1259		-83.984375
1260		-78.125000
1261		-85.937500
1262		-78.125000
1263		-85.937500
1264		-78.125000
1265		-85.937500
1266		-78.125000
1267		-85.937500
1268		-78.125000
1269		-83.984375
1270		-78.125000
1271		-83.984375
1272		-78.125000
1273		-82.031250
1274		-78.125000
1275		-82.031250
1276		-74.218750
1277		-82.031250
1278		-74.218750
1279		-80.078125
1280		-72.265625
1281		-78.125000
1282		-70.312500
1283		-76.171875
1284		-68.359375
1285		-74.218750
1286		-66.406250
1287		-72.265625
1288		-66.406250
1289		-68.359375
1290		-64.453125
1291		-66.406250
1292		-62.500000
1293		-66.406250
1294		-56.640625
1295		-62.500000
1296		-54.687500
1297		-60.546875
1298		-50.781250
1299		-56.640625
1300		-48.828125
1301		-52.734375
1302		-44.921875
1303		-50.781250
1304		-42.968750
1305		-44.921875
1306		-41.015625
1307		-41.015625
1308		-37.109375
1309		-39.062500
1310		-31.250000
1311		-37.109375
1312		-27.343750
1313		-33.203125
1314		-23.437500
1315		-29.296875
1316		-19.531250
1317		-25.390625
1318		-15.625000
1319		-21.484375
1320		-11.718750
1321		-17.578125
1322		-9.765625
1323		-11.718750
1324		-5.859375
1325		-7.812500
1326		0.000000
1327		-5.859375
1328		3.906250
1329		-1.953125
1330		7.812500
1331		1.953125
1332		11.718750
1333		7.812500
1334		15.625000
1335		11.718750
1336		19.531250
1337		15.625000
1338		23.437500
1339		19.531250
1340		25.390625
1341		23.437500
1342		29.296875
1343		27.343750
1344		35.156250
1345		29.296875
1346		39.062500
1347		33.203125
1348		42.968750
1349		37.109375
1350		46.875000
1351		41.015625
1352		48.828125
1353		44.921875
1354		52.734375
1355		48.828125
1356		54.687500
1357		52.734375
1358		58.593750
1359		56.640625
1360		64.453125
1361		58.593750
1362		66.406250
1363		60.546875
1364		68.359375
1365		64.453125
1366		72.265625
1367		66.406250
1368		76.171875
1369		70.312500
1370		78.125000
1371		72.265625
1372		78.125000
1373		76.171875
1374		80.078125
1375		78.125000
1376		82.031250
1377		80.078125
1378		85.937500
1379		82.031250
1380		87.890625
1381		82.031250
1382		89.843750
1383		83.984375
1384		91.796875
1385		85.937500
1386		93.750000
1387		87.890625
1388		95.703125
1389		89.843750
1390		93.750000
1391		91.796875
1392		95.703125
1393		91.796875
1394		97.656250
1395		91.796875
1396		99.609375
1397		91.796875
1398		99.609375
1399		93.750000
1400		99.609375
1401		93.750000
1402		99.609375
1403		93.750000
1404		101.562500
1405		95.703125
1406		99.609375
1407		95.703125
1408		97.656250
1409		95.703125
1410		99.609375
1411		93.750000
1412		101.562500
1413		93.750000
1414		99.609375
1415		91.796875
1416		99.609375
1417		91.796875
1418		99.609375
1419		89.843750
1420		97.656250
1421		89.843750
1422		95.703125
1423		89.843750
1424		93.750000
1425		87.890625
1426		91.796875
1427		85.937500
1428		91.796875
1429		82.031250
1430		91.796875
1431		82.031250
1432		89.843750
1433		80.078125
1434		87.890625
1435		76.171875
1436		85.937500
1437		74.218750
1438		82.031250
1439		74.218750
1440		80.078125
1441		72.265625
1442		76.171875
1443		66.406250
1444		74.218750
1445		64.453125
1446		72.265625
1447		60.546875
1448		70.312500
1449		58.593750
1450		66.406250
1451		54.687500
1452		62.500000
1453		50.781250
1454		60.546875
1455		48.828125
1456		56.640625
1457		46.875000
1458		50.781250
1459		42.968750
1460		48.828125
1461		37.109375
1462		46.875000
1463		33.203125
1464		42.968750
1465		31.250000
1466		39.062500
1467		25.390625
1468		35.156250
1469		23.437500
1470		31.250000
1471		17.578125
1472		29.296875
1473		15.625000
1474		21.484375
1475		11.718750
1476		17.578125
1477		5.859375
1478		13.671875
1479		1.953125
1480		11.718750
1481		-1.953125
1482		7.812500
1483		-5.859375
1484		3.906250
1485		-9.765625
1486		0.000000
1487		-13.671875
1488		-3.906250
1489		-15.625000
1490		-7.812500
1491		-19.531250
1492		-13.671875
1493		-25.390625
1494		-17.578125
1495		-29.296875
1496		-19.531250
1497		-33.203125
1498		-23.437500
1499		-37.109375
1500		-27.343750
1501		-41.015625
1502		-31.250000
1503		-44.921875
1504		-35.156250
1505		-46.875000
1506		-37.109375
1507		-48.828125
1508		-44.921875
1509		-52.734375
1510		-46.875000
1511		-56.640625
1512		-48.828125
1513		-60.546875
1514		-50.781250
1515		-62.500000
1516		-54.687500
1517		-64.453125
1518		-56.640625
1519		-68.359375
1520		-60.546875
1521		-70.312500
1522		-62.500000
1523		-70.312500
1524		-64.453125
1525		-72.265625
1526		-68.359375
1527		-76.171875
1528		-70.312500
1529		-78.125000
1530		-70.312500
1531		-80.078125
1532		-72.265625
1533		-80.078125
1534		-74.218750
1535		-82.031250
1536		-74.218750
1537		-82.031250
1538		-76.171875
1539		-82.031250
1540		-76.171875
1541		-82.031250
1542		-80.078125
1543		-82.031250
1544		-80.078125
1545		-83.984375
1546		-78.125000
1547		-83.984375
1548		-78.125000
1549		-83.984375
1550		-78.125000
1551		-83.984375
1552		-78.125000
1553		-83.984375
1554		-76.171875
1555		-82.031250
1556		-76.171875
1557		-80.078125
1558		-76.171875
1559		-78.125000
1560		-76.171875
1561		-78.125000
1562		-72.265625
1563		-78.125000
1564		-70.312500
1565		-76.171875
1566		-68.359375
1567		-74.218750
1568		-66.406250
1569		-72.265625
1570		-64.453125
1571		-70.312500
1572		-62.500000
1573		-68.359375
1574		-60.546875
1575		-62.500000
1576		-58.593750
1577		-60.546875
1578		-54.687500
1579		-60.546875
1580		-52.734375
1581		-58.593750
1582		-48.828125
1583		-54.687500
1584		-44.921875
1585		-50.781250
1586		-42.968750
1587		-46.875000
1588		-39.062500
1589		-44.921875
1590		-35.156250
1591		-39.062500
1592		-33.203125
1593		-35.156250
1594		-29.296875
1595		-31.250000
1596		-23.437500
1597		-29.296875
1598		-19.531250
1599		-25.390625
1600		-15.625000
1601		-21.484375
1602		-11.718750
1603		-17.578125
1604		-9.765625
1605		-13.671875
1606		-5.859375
1607		-9.765625
1608		-1.953125
1609		-3.906250
1610		1.953125
1611		0.000000
1612		7.812500
1613		1.953125
1614		11.718750
1615		5.859375
1616		15.625000
1617		9.765625
1618		19.531250
1619		15.625000
1620		23.437500
1621		17.578125
1622		27.343750
1623		21.484375
1624		29.296875
1625		27.343750
1626		33.203125
1627		31.250000
1628		37.109375
1629		33.203125
1630		42.968750
1631		37.109375
1632		46.875000
1633		41.015625
1634		48.828125
1635		44.921875
1636		52.734375
1637		46.875000
1638		56.640625
1639		50.781250
1640		60.546875
1641		54.687500
1642		60.546875
1643		58.593750
1644		64.453125
1645		60.546875
1646		68.359375
1647		62.500000
1648		70.312500
1649		66.406250
1650		74.218750
1651		68.359375
1652		76.171875
1653		72.265625
1654		80.078125
1655		74.218750
1656		82.031250
1657		76.171875
1658		83.984375
1659		80.078125
1660		83.984375
1661		82.031250
1662		87.890625
1663		82.031250
1664		89.843750
1665		83.984375
1666		91.796875
1667		85.937500
1668		93.750000
1669		87.890625
1670		93.750000
1671		87.890625
1672		95.703125
1673		89.843750
1674		97.656250
1675		93.750000
1676		95.703125
1677		93.750000
1678		95.703125
1679		93.750000
1680		99.609375
1681		93.750000
1682		99.609375
1683		93.750000
1684		99.609375
1685		93.750000
1686		101.562500
1687		93.750000
1688		101.562500
1689		93.750000
1690		101.562500
1691		93.750000
1692		99.609375
1693		95.703125
1694		97.656250
1695		93.750000
1696		99.609375
1697		91.796875
1698		99.609375
1699		91.796875
1700		97.656250
1701		89.843750
1702		97.656250
1703		89.843750
1704		95.703125
1705		87.890625
1706		95.703125
1707		85.937500
1708		93.750000
1709		85.937500
1710		89.843750
1711		85.937500
1712		87.890625
1713		82.031250
1714		89.843750
1715		80.078125
1716		87.890625
1717		76.171875
1718		85.937500
1719		74.218750
1720		82.031250
1721		72.265625
1722		80.078125
1723		70.312500
1724		78.125000
1725		68.359375
1726		74.218750
1727		66.406250
1728		70.312500
1729		60.546875
1730		68.359375
1731		56.640625
1732		66.406250
1733		54.687500
1734		64.453125
1735		50.781250
1736		60.546875
1737		48.828125
1738		56.640625
1739		44.921875
1740		54.687500
1741		42.968750
1742		50.781250
1743		39.062500
1744		44.921875
1745		35.156250
1746		41.015625
1747		29.296875
1748		39.062500
1749		27.343750
1750		35.156250
1751		21.484375
1752		31.250000
1753		19.531250
1754		27.343750
1755		13.671875
1756		25.390625
1757		11.718750
1758		19.531250
1759		9.765625
1760		13.671875
1761		3.906250
1762		9.765625
1763		-1.953125
1764		5.859375
1765		-5.859375
1766		3.906250
1767		-9.765625
1768		0.000000
1769		-13.671875
1770		-3.906250
1771		-17.578125
1772		-7.812500
1773		-21.484375
1774		-13.671875
1775		-23.437500
1776		-15.625000
1777		-27.343750
1778		-21.484375
1779		-33.203125
1780		-25.390625
1781		-37.109375
1782		-27.343750
1783		-41.015625
1784		-31.250000
1785		-44.921875
1786		-35.156250
1787		-46.875000
1788		-39.062500
1789		-50.781250
1790		-42.968750
1791		-52.734375
1792		-44.921875
1793		-54.687500
1794		-50.781250
1795		-58.593750
1796		-52.734375
1797		-62.500000
1798		-54.687500
1799		-64.453125
1800		-56.640625
1801		-68.359375
1802		-58.593750
1803		-70.312500
1804		-62.500000
1805		-72.265625
1806		-64.453125
1807		-74.218750
1808		-66.406250
1809		-74.218750
1810		-70.312500
1811		-76.171875
1812		-72.265625
1813		-80.078125
1814		-74.218750
1815		-82.031250
1816		-74.218750
1817		-82.031250
1818		-74.218750
1819		-82.031250
1820		-76.171875
1821		-83.984375
1822		-76.171875
1823		-83.984375
1824		-78.125000
1825		-83.984375
1826		-78.125000
1827		-82.031250
1828		-80.078125
1829		-83.984375
1830		-80.078125
1831		-83.984375
1832		-78.125000
1833		-83.984375
1834		-78.125000
1835		-83.984375
1836		-78.125000
1837		-83.984375
1838		-76.171875
1839		-82.031250
1840		-76.171875
1841		-82.031250
1842		-74.218750
1843		-78.125000
1844		-74.218750
1845		-76.171875
1846		-74.218750
1847		-76.171875
1848		-68.359375
1849		-74.218750
1850		-68.359375
1851		-74.218750
1852		-64.453125
1853		-70.312500
1854		-62.500000
1855		-68.359375
1856		-60.546875
1857		-66.406250
1858		-58.593750
1859		-64.453125
1860		-56.640625
1861		-58.593750
1862		-54.687500
1863		-56.640625
1864		-48.828125
1865		-54.687500
1866		-46.875000
1867		-52.734375
1868		-42.968750
1869		-48.828125
1870		-39.062500
1871		-44.921875
1872		-37.109375
1873		-41.015625
1874		-31.250000
1875		-39.062500
1876		-29.296875
1877		-31.250000
1878		-27.343750
1879		-29.296875
1880		-23.437500
1881		-25.390625
1882		-17.578125
1883		-23.437500
1884		-13.671875
1885		-19.531250
1886		-9.765625
1887		-15.625000
1888		-5.859375
1889		-9.765625
1890		0.000000
1891		-7.812500
1892		1.953125
1893		-1.953125
1894		3.906250
1895		3.906250
1896		9.765625
1897		7.812500
1898		13.671875
1899		9.765625
1900		17.578125
1901		13.671875
1902		21.484375
1903		17.578125
1904		25.390625
1905		21.484375
1906		29.296875
1907		25.390625
1908		33.203125
1909		29.296875
1910		35.156250
1911		35.156250
1912		39.062500
1913		39.062500
1914		44.921875
1915		41.015625
1916		48.828125
1917		42.968750
1918		52.734375
1919		46.875000
1920		56.640625
1921		50.781250
1922		58.593750
1923		54.687500
1924		62.500000
1925		56.640625
1926		64.453125
1927		60.546875
1928		66.406250
1929		64.453125
1930		70.312500
1931		66.406250
1932		74.218750
1933		68.359375
1934		76.171875
1935		70.312500
1936		78.125000
1937		72.265625
1938		82.031250
1939		76.171875
1940		83.984375
1941		78.125000
1942		85.937500
1943		80.078125
1944		85.937500
1945		83.984375
1946		87.890625
1947		85.937500
1948		91.796875
1949		85.937500
1950		93.750000
1951		87.890625
1952		93.750000
1953		87.890625
1954		95.703125
1955		89.843750
1956		97.656250
1957		89.843750
1958		97.656250
1959		91.796875
1960		97.656250
1961		93.750000
1962		97.656250
1963		95.703125
1964		97.656250
1965		93.750000
1966		99.609375
1967		93.750000
1968		99.609375
1969		93.750000
1970		99.609375
1971		93.750000
1972		99.609375
1973		93.750000
1974		99.609375
1975		93.750000
1976		99.609375
1977		93.750000
1978		99.609375
1979		93.750000
1980		97.656250
1981		91.796875
1982		97.656250
1983		89.843750
1984		97.656250
1985		89.843750
1986		97.656250
1987		87.890625
1988		95.703125
1989		85.937500
1990		93.750000
1991		85.937500
1992		91.796875
1993		83.984375
1994		89.843750
1995		83.984375
1996		87.890625
1997		82.031250
1998		85.937500
1999		78.125000
2000		85.937500
2001		74.218750
2002		82.031250
2003		72.265625
2004		80.078125
2005		70.312500
2006		78.125000
2007		68.359375
2008		76.171875
2009		64.453125
2010		72.265625
2011		64.453125
2012		68.359375
2013		60.546875
2014		66.406250
2015		54.687500
2016		62.500000
2017		52.734375
2018		60.546875
2019		48.828125
2020		56.640625
2021		44.921875
2022		54.687500
2023		42.968750
2024		50.781250
2025		39.062500
2026		46.875000
2027		37.109375
2028		42.968750
2029		33.203125
2030		37.109375
2031		27.343750
2032		35.156250
2033		23.437500
2034		31.250000
2035		19.531250
2036		29.296875
2037		15.625000
2038		23.437500
2039		9.765625
2040		21.484375
2041		7.812500
2042		15.625000
2043		3.906250
2044		13.671875
2045		0.000000
2046		5.859375
2047		-3.906250
2048		1.953125
2049		-9.765625
2050		0.000000
2051		-13.671875
2052		-3.906250
2053		-17.578125
2054		-7.812500
2055		-21.484375
2056		-11.718750
2057		-25.390625
2058		-15.625000
2059		-29.296875
2060		-19.531250
2061		-31.250000
2062		-23.437500
2063		-35.156250
2064		-29.296875
2065		-39.062500
2066		-33.203125
2067		-44.921875
2068		-35.156250
2069		-46.875000
2070		-39.062500
2071		-50.781250
2072		-41.015625
2073		-54.687500
2074		-44.921875
2075		-58.593750
2076		-48.828125
2077		-58.593750
2078		-50.781250
2079		-60.546875
2080		-56.640625
2081		-62.500000
2082		-58.593750
2083		-68.359375
2084		-60.546875
2085		-70.312500
2086		-62.500000
2087		-72.265625
2088		-64.453125
2089		-74.218750
2090		-66.406250
2091		-76.171875
2092		-68.359375
2093		-78.125000
2094		-70.312500
2095		-78.125000
2096		-74.218750
2097		-78.125000
2098		-76.171875
2099		-82.031250
2100		-76.171875
2101		-83.984375
2102		-76.171875
2103		-83.984375
2104		-76.171875
2105		-83.984375
2106		-78.125000
2107		-85.937500
2108		-78.125000
2109		-85.937500
2110		-78.125000
2111		-85.937500
2112		-78.125000
2113		-82.031250
2114		-80.078125
2115		-85.937500
2116		-78.125000
2117		-83.984375
2118		-78.125000
2119		-83.984375
2120		-76.171875
2121		-82.031250
2122		-76.171875
2123		-82.031250
2124		-74.218750
2125		-80.078125
2126		-74.218750
2127		-80.078125
2128		-72.265625
2129		-76.171875
2130		-72.265625
2131		-74.218750
2132		-70.312500
2133		-74.218750
2134		-66.406250
2135		-72.265625
2136		-64.453125
2137		-68.359375
2138		-60.546875
2139		-66.406250
2140		-58.593750
2141		-64.453125
2142		-56.640625
2143		-62.500000
2144		-52.734375
2145		-58.593750
2146		-50.781250
2147		-54.687500
2148		-48.828125
2149		-50.781250
2150		-42.968750
2151		-48.828125
2152		-41.015625
2153		-44.921875
2154		-37.109375
2155		-42.968750
2156		-33.203125
2157		-39.062500
2158		-29.296875
2159		-35.156250
2160		-25.390625
2161		-31.250000
2162		-23.437500
2163		-25.390625
2164		-19.531250
2165		-21.484375
2166		-15.625000
2167		-19.531250
2168		-9.765625
2169		-15.625000
2170		-5.859375
2171		-9.765625
2172		-1.953125
2173		-7.812500
2174		1.953125
2175		-3.906250
2176		5.859375
2177		0.000000
2178		9.765625
2179		5.859375
2180		11.718750
2181		9.765625
2182		15.625000
2183		13.671875
2184		21.484375
2185		15.625000
2186		25.390625
2187		21.484375
2188		29.296875
2189		23.437500
2190		33.203125
2191		29.296875
2192		37.109375
2193		31.250000
2194		41.015625
2195		35.156250
2196		42.968750
2197		41.015625
2198		46.875000
2199		44.921875
2200		50.781250
2201		46.875000
2202		54.687500
2203		48.828125
2204		58.593750
2205		52.734375
2206		62.500000
2207		56.640625
2208		64.453125
2209		58.593750
2210		68.359375
2211		62.500000
2212		70.312500
2213		66.406250
2214		70.312500
2215		70.312500
2216		74.218750
2217		70.312500
2218		78.125000
2219		72.265625
2220		80.078125
2221		76.171875
2222		82.031250
2223		78.125000
2224		85.937500
2225		80.078125
2226		87.890625
2227		82.031250
2228		89.843750
2229		83.984375
2230		89.843750
2231		87.890625
2232		89.843750
2233		87.890625
2234		93.750000
2235		87.890625
2236		95.703125
2237		89.843750
2238		95.703125
2239		89.843750
2240		97.656250
2241		91.796875
2242		97.656250
2243		91.796875
2244		99.609375
2245		91.796875
2246		99.609375
2247		95.703125
2248		97.656250
2249		95.703125
2250		97.656250
2251		93.750000
2252		99.609375
2253		93.750000
2254		99.609375
2255		93.750000
2256		99.609375
2257		93.750000
2258		99.609375
2259		91.796875
2260		99.609375
2261		91.796875
2262		99.609375
2263		93.750000
2264		97.656250
2265		91.796875
2266		95.703125
2267		87.890625
2268		95.703125
2269		87.890625
2270		95.703125
2271		85.937500
2272		93.750000
2273		83.984375
2274		91.796875
2275		82.031250
2276		89.843750
2277		82.031250
2278		89.843750
2279		80.078125
2280		85.937500
2281		80.078125
2282		83.984375
2283		76.171875
2284		80.078125
2285		72.265625
2286		80.078125
2287		70.312500
2288		78.125000
2289		68.359375
2290		76.171875
2291		64.453125
2292		72.265625
2293		60.546875
2294		70.312500
2295		58.593750
2296		66.406250
2297		56.640625
2298		62.500000
2299		54.687500
2300		58.593750
2301		48.828125
2302		56.640625
2303		44.921875
2304		52.734375
2305		41.015625
2306		50.781250
2307		37.109375
2308		46.875000
2309		33.203125
2310		44.921875
2311		31.250000
2312		39.062500
2313		29.296875
2314		37.109375
2315		25.390625
2316		29.296875
2317		19.531250
2318		25.390625
2319		15.625000
2320		25.390625
2321		11.718750
2322		19.531250
2323		5.859375
2324		15.625000
2325		1.953125
2326		11.718750
2327		0.000000
2328		7.812500
2329		-3.906250
2330		3.906250
2331		-7.812500
2332		-1.953125
2333		-11.718750
2334		-5.859375
2335		-17.578125
2336		-7.812500
2337		-21.484375
2338		-11.718750
2339		-25.390625
2340		-15.625000
2341		-29.296875
2342		-21.484375
2343		-33.203125
2344		-23.437500
2345		-37.109375
2346		-27.343750
2347		-39.062500
2348		-31.250000
2349		-41.015625
2350		-37.109375
2351		-46.875000
2352		-39.062500
2353		-50.781250
2354		-41.015625
2355		-52.734375
2356		-44.921875
2357		-56.640625
2358		-48.828125
2359		-60.546875
2360		-52.734375
2361		-64.453125
2362		-54.687500
2363		-64.453125
2364		-56.640625
2365		-66.406250
2366		-62.500000
2367		-68.359375
2368		-64.453125
2369		-72.265625
2370		-64.453125
2371		-76.171875
2372		-66.406250
2373		-76.171875
2374		-68.359375
2375		-78.125000
2376		-72.265625
2377		-80.078125
2378		-72.265625
2379		-82.031250
2380		-74.218750
2381		-80.078125
2382		-76.171875
2383		-82.031250
2384		-78.125000
2385		-83.984375
2386		-78.125000
2387		-85.937500
2388		-78.125000
2389		-85.937500
2390		-78.125000
2391		-85.937500
2392		-80.078125
2393		-85.937500
2394		-80.078125
2395		-85.937500
2396		-80.078125
2397		-85.937500
2398		-78.125000
2399		-82.031250
2400		-80.078125
2401		-82.031250
2402		-78.125000
2403		-83.984375
2404		-76.171875
2405		-82.031250
2406		-76.171875
2407		-82.031250
2408		-74.218750
2409		-80.078125
2410		-72.265625
2411		-78.125000
2412		-70.312500
2413		-76.171875
2414		-70.312500
2415		-72.265625
2416		-68.359375
2417		-70.312500
2418		-66.406250
2419		-70.312500
2420		-62.500000
2421		-68.359375
2422		-60.546875
2423		-64.453125
2424		-56.640625
2425		-62.500000
2426		-54.687500
2427		-60.546875
2428		-52.734375
2429		-54.687500
2430		-48.828125
2431		-52.734375
2432		-46.875000
2433		-48.828125
2434		-42.968750
2435		-44.921875
2436		-37.109375
2437		-42.968750
2438		-35.156250
2439		-41.015625
2440		-31.250000
2441		-35.156250
2442		-27.343750
2443		-33.203125
2444		-25.390625
2445		-27.343750
2446		-19.531250
2447		-23.437500
2448		-17.578125
2449		-19.531250
2450		-13.671875
2451		-13.671875
2452		-9.765625
2453		-11.718750
2454		-5.859375
2455		-7.812500
2456		-1.953125
2457		-1.953125
2458		3.906250
2459		1.953125
2460		7.812500
2461		5.859375
2462		11.718750
2463		9.765625
2464		15.625000
2465		11.718750
2466		19.531250
2467		17.578125
2468		23.437500
2469		21.484375
2470		27.343750
2471		25.390625
2472		31.250000
2473		29.296875
2474		35.156250
2475		31.250000
2476		37.109375
2477		37.109375
2478		41.015625
2479		39.062500
2480		44.921875
2481		42.968750
2482		48.828125
2483		46.875000
2484		52.734375
2485		50.781250
2486		56.640625
2487		54.687500
2488		58.593750
2489		56.640625
2490		62.500000
2491		60.546875
2492		64.453125
2493		62.500000
2494		68.359375
2495		66.406250
2496		70.312500
2497		68.359375
2498		74.218750
2499		72.265625
2500		76.171875
2501		74.218750
2502		78.125000
2503		76.171875
2504		80.078125
2505		78.125000
2506		82.031250
2507		80.078125
2508		83.984375
2509		83.984375
2510		85.937500
2511		83.984375
2512		87.890625
2513		85.937500
2514		89.843750
2515		87.890625
2516		91.796875
2517		89.843750
2518		91.796875
2519		91.796875
2520		93.750000
2521		91.796875
2522		95.703125
2523		91.796875
2524		95.703125
2525		93.750000
2526		95.703125
2527		93.750000
2528		97.656250
2529		93.750000
2530		97.656250
2531		93.750000
2532		99.609375
2533		95.703125
2534		97.656250
2535		95.703125
2536		97.656250
2537		95.703125
2538		99.609375
2539		95.703125
2540		97.656250
2541		93.750000
2542		97.656250
2543		93.750000
2544		97.656250
2545		93.750000
2546		95.703125
2547		91.796875
2548		95.703125
2549		91.796875
2550		95.703125
2551		89.843750
2552		93.750000
2553		87.890625
2554		91.796875
2555		85.937500
2556		89.843750
2557		85.937500
2558		89.843750
2559		83.984375
2560		87.890625
2561		82.031250
2562		85.937500
2563		78.125000
2564		83.984375
2565		76.171875
2566		80.078125
2567		74.218750
2568		78.125000
2569		70.312500
2570		76.171875
2571		68.359375
2572		74.218750
2573		66.406250
2574		72.265625
2575		62.500000
2576		68.359375
2577		60.546875
2578		66.406250
2579		58.593750
2580		62.500000
2581		52.734375
2582		58.593750
2583		50.781250
2584		56.640625
2585		46.875000
2586		52.734375
2587		42.968750
2588		48.828125
2589		41.015625
2590		44.921875
2591		37.109375
2592		42.968750
2593		33.203125
2594		39.062500
2595		29.296875
2596		35.156250
2597		25.390625
2598		31.250000
2599		21.484375
2600		27.343750
2601		17.578125
2602		23.437500
2603		13.671875
2604		19.531250
2605		9.765625
2606		15.625000
2607		5.859375
2608		11.718750
2609		1.953125
2610		7.812500
2611		-1.953125
2612		3.906250
2613		-5.859375
2614		-1.953125
2615		-9.765625
2616		-5.859375
2617		-13.671875
2618		-9.765625
2619		-19.531250
2620		-13.671875
2621		-23.437500
2622		-15.625000
2623		-25.390625
2624		-21.484375
2625		-29.296875
2626		-25.390625
2627		-35.156250
2628		-29.296875
2629		-37.109375
2630		-33.203125
2631		-41.015625
2632		-35.156250
2633		-44.921875
2634		-39.062500
2635		-48.828125
2636		-42.968750
2637		-50.781250
2638		-46.875000
2639		-54.687500
2640		-50.781250
2641		-56.640625
2642		-52.734375
2643		-60.546875
2644		-56.640625
2645		-62.500000
2646		-58.593750
2647		-66.406250
2648		-60.546875
2649		-68.359375
2650		-64.453125
2651		-70.312500
2652		-66.406250
2653		-74.218750
2654		-68.359375
2655		-74.218750
2656		-70.312500
2657		-76.171875
2658		-72.265625
2659		-78.125000
2660		-74.218750
2661		-80.078125
2662		-76.171875
2663		-80.078125
2664		-76.171875
2665		-82.031250
2666		-78.125000
2667		-82.031250
2668		-80.078125
2669		-82.031250
2670		-80.078125
2671		-83.984375
2672		-80.078125
2673		-83.984375
2674		-82.031250
2675		-83.984375
2676		-80.078125
2677		-83.984375
2678		-82.031250
2679		-83.984375
2680		-80.078125
2681		-83.984375
2682		-80.078125
2683		-83.984375
2684		-80.078125
2685		-82.031250
2686		-78.125000
2687		-80.078125
2688		-76.171875
2689		-80.078125
2690		-76.171875
2691		-78.125000
2692		-74.218750
2693		-76.171875
2694		-74.218750
2695		-76.171875
2696		-70.312500
2697		-72.265625
2698		-68.359375
2699		-70.312500
2700		-66.406250
2701		-68.359375
2702		-64.453125
2703		-66.406250
2704		-62.500000
2705		-64.453125
2706		-58.593750
2707		-62.500000
2708		-56.640625
2709		-58.593750
2710		-52.734375
2711		-54.687500
2712		-50.781250
2713		-52.734375
2714		-46.875000
2715		-48.828125
2716		-42.968750
2717		-46.875000
2718		-41.015625
2719		-41.015625
2720		-37.109375
2721		-39.062500
2722		-33.203125
2723		-35.156250
2724		-29.296875
2725		-31.250000
2726		-25.390625
2727		-27.343750
2728		-21.484375
2729		-23.437500
2730		-17.578125
2731		-19.531250
2732		-13.671875
2733		-15.625000
2734		-9.765625
2735		-11.718750
2736		-5.859375
2737		-7.812500
2738		-1.953125
2739		-3.906250
2740		1.953125
2741		0.000000
2742		5.859375
2743		3.906250
2744		9.765625
2745		9.765625
2746		13.671875
2747		13.671875
2748		17.578125
2749		17.578125
2750		21.484375
2751		21.484375
2752		25.390625
2753		23.437500
2754		29.296875
2755		27.343750
2756		33.203125
2757		31.250000
2758		37.109375
2759		35.156250
2760		41.015625
2761		39.062500
2762		44.921875
2763		42.968750
2764		48.828125
2765		46.875000
2766		52.734375
2767		48.828125
2768		54.687500
2769		52.734375
2770		58.593750
2771		56.640625
2772		62.500000
2773		58.593750
2774		64.453125
2775		62.500000
2776		68.359375
2777		66.406250
2778		70.312500
2779		68.359375
2780		74.218750
2781		70.312500
2782		76.171875
2783		72.265625
2784		78.125000
2785		76.171875
2786		80.078125
2787		78.125000
2788		82.031250
2789		80.078125
2790		83.984375
2791		82.031250
2792		85.937500
2793		83.984375
2794		87.890625
2795		85.937500
2796		89.843750
2797		87.890625
2798		91.796875
2799		87.890625
2800		91.796875
2801		89.843750
2802		93.750000
2803		91.796875
2804		95.703125
2805		91.796875
2806		95.703125
2807		93.750000
2808		97.656250
2809		93.750000
2810		97.656250
2811		93.750000
2812		97.656250
2813		95.703125
2814		97.656250
2815		95.703125
2816		97.656250
2817		93.750000
2818		99.609375
2819		95.703125
2820		97.656250
2821		93.750000
2822		97.656250
2823		93.750000
2824		97.656250
2825		93.750000
2826		97.656250
2827		93.750000
2828		95.703125
2829		91.796875
2830		95.703125
2831		89.843750
2832		93.750000
2833		89.843750
2834		93.750000
2835		89.843750
2836		91.796875
2837		87.890625
2838		89.843750
2839		85.937500
2840		89.843750
2841		83.984375
2842		87.890625
2843		82.031250
2844		85.937500
2845		80.078125
2846		83.984375
2847		78.125000
2848		82.031250
2849		74.218750
2850		80.078125
2851		72.265625
2852		76.171875
2853		70.312500
2854		74.218750
2855		66.406250
2856		72.265625
2857		64.453125
2858		68.359375
2859		60.546875
2860		66.406250
2861		58.593750
2862		62.500000
2863		54.687500
2864		60.546875
2865		50.781250
2866		56.640625
2867		46.875000
2868		52.734375
2869		44.921875
2870		48.828125
2871		41.015625
2872		46.875000
2873		37.109375
2874		42.968750
2875		33.203125
2876		39.062500
2877		29.296875
2878		35.156250
2879		25.390625
2880		31.250000
2881		21.484375
2882		27.343750
2883		17.578125
2884		23.437500
2885		13.671875
2886		19.531250
2887		9.765625
2888		15.625000
2889		5.859375
2890		11.718750
2891		1.953125
2892		7.812500
2893		-1.953125
2894		3.906250
2895		-7.812500
2896		0.000000
2897		-9.765625
2898		-5.859375
2899		-13.671875
2900		-7.812500
2901		-17.578125
2902		-11.718750
2903		-21.484375
2904		-17.578125
2905		-25.390625
2906		-21.484375
2907		-29.296875
2908		-23.437500
2909		-33.203125
2910		-27.343750
2911		-37.109375
2912		-31.250000
2913		-41.015625
2914		-35.156250
2915		-44.921875
2916		-39.062500
2917		-48.828125
2918		-42.968750
2919		-50.781250
2920		-46.875000
2921		-54.687500
2922		-48.828125
2923		-56.640625
2924		-52.734375
2925		-60.546875
2926		-54.687500
2927		-62.500000
2928		-58.593750
2929		-64.453125
2930		-60.546875
2931		-68.359375
2932		-64.453125
2933		-70.312500
2934		-66.406250
2935		-72.265625
2936		-68.359375
2937		-74.218750
2938		-70.312500
2939		-76.171875
2940		-72.265625
2941		-78.125000
2942		-74.218750
2943		-78.125000
2944		-76.171875
2945		-80.078125
2946		-76.171875
2947		-82.031250
2948		-78.125000
2949		-82.031250
2950		-78.125000
2951		-83.984375
2952		-80.078125
2953		-83.984375
2954		-80.078125
2955		-83.984375
2956		-80.078125
2957		-83.984375
2958		-80.078125
2959		-83.984375
2960		-80.078125
2961		-83.984375
2962		-80.078125
2963		-82.031250
2964		-80.078125
2965		-82.031250
2966		-80.078125
2967		-82.031250
2968		-78.125000
2969		-80.078125
2970		-78.125000
2971		-80.078125
2972		-76.171875
2973		-78.125000
2974		-74.218750
2975		-76.171875
2976		-72.265625
2977		-74.218750
2978		-70.312500
2979		-72.265625
2980		-68.359375
2981		-70.312500
2982		-66.406250
2983		-68.359375
2984		-64.453125
2985		-66.406250
2986		-62.500000
2987		-62.500000
2988		-58.593750
2989		-60.546875
2990		-56.640625
2991		-58.593750
2992		-52.734375
2993		-54.687500
2994		-50.781250
2995		-52.734375
2996		-46.875000
2997		-48.828125
2998		-42.968750
2999		-44.921875
3000		-39.062500
3001		-41.015625
3002		-35.156250
3003		-39.062500
3004		-33.203125
3005		-35.156250
3006		-29.296875
3007		-31.250000
3008		-25.390625
3009		-27.343750
3010		-21.484375
3011		-23.437500
3012		-17.578125
3013		-19.531250
3014		-13.671875
3015		-15.625000
3016		-9.765625
3017		-11.718750
3018		-5.859375
3019		-7.812500
3020		-1.953125
3021		-3.906250
3022		1.953125
3023		1.953125
3024		7.812500
3025		3.906250
3026		9.765625
3027		7.812500
3028		13.671875
3029		11.718750
3030		17.578125
3031		17.578125
3032		21.484375
3033		19.531250
3034		25.390625
3035		25.390625
3036		31.250000
3037		29.296875
3038		33.203125
3039		33.203125
3040		37.109375
3041		35.156250
3042		41.015625
3043		39.062500
3044		44.921875
3045		42.968750
3046		48.828125
3047		46.875000
3048		52.734375
3049		50.781250
3050		54.687500
3051		52.734375
3052		58.593750
3053		56.640625
3054		60.546875
3055		60.546875
3056		64.453125
3057		62.500000
3058		68.359375
3059		66.406250
3060		70.312500
3061		68.359375
3062		72.265625
3063		72.265625
3064		76.171875
3065		74.218750
3066		78.125000
3067		76.171875
3068		80.078125
3069		78.125000
3070		82.031250
3071		80.078125
3072		83.984375
3073		82.031250
3074		85.937500
3075		83.984375
3076		89.843750
3077		85.937500
3078		91.796875
3079		87.890625
3080		91.796875
3081		89.843750
3082		93.750000
3083		91.796875
3084		93.750000
3085		91.796875
3086		95.703125
3087		91.796875
3088		95.703125
3089		93.750000
3090		97.656250
3091		95.703125
3092		97.656250
3093		95.703125
3094		97.656250
3095		95.703125
3096		97.656250
3097		95.703125
3098		99.609375
3099		95.703125
3100		99.609375
3101		95.703125
3102		99.609375
3103		95.703125
3104		99.609375
3105		95.703125
3106		97.656250
3107		91.796875
3108		97.656250
3109		93.750000
3110		97.656250
3111		93.750000
3112		97.656250
3113		91.796875
3114		95.703125
3115		91.796875
3116		93.750000
3117		89.843750
3118		93.750000
3119		87.890625
3120		91.796875
3121		85.937500
3122		89.843750
3123		83.984375
3124		87.890625
3125		82.031250
3126		87.890625
3127		80.078125
3128		83.984375
3129		78.125000
3130		83.984375
3131		76.171875
3132		80.078125
3133		74.218750
3134		78.125000
3135		70.312500
3136		76.171875
3137		68.359375
3138		74.218750
3139		64.453125
3140		70.312500
3141		62.500000
3142		66.406250
3143		60.546875
3144		64.453125
3145		54.687500
3146		60.546875
3147		52.734375
3148		56.640625
3149		48.828125
3150		54.687500
3151		46.875000
3152		50.781250
3153		42.968750
3154		48.828125
3155		39.062500
3156		44.921875
3157		35.156250
3158		41.015625
3159		31.250000
3160		37.109375
3161		27.343750
3162		33.203125
3163		23.437500
3164		29.296875
3165		19.531250
3166		25.390625
3167		15.625000
3168		21.484375
3169		11.718750
3170		17.578125
3171		7.812500
3172		15.625000
3173		3.906250
3174		9.765625
3175		0.000000
3176		5.859375
3177		-5.859375
3178		0.000000
3179		-7.812500
3180		-3.906250
3181		-13.671875
3182		-7.812500
3183		-17.578125
3184		-11.718750
3185		-21.484375
3186		-13.671875
3187		-25.390625
3188		-19.531250
3189		-29.296875
3190		-23.437500
3191		-33.203125
3192		-27.343750
3193		-37.109375
3194		-31.250000
3195		-39.062500
3196		-35.156250
3197		-42.968750
3198		-37.109375
3199		-46.875000
3200		-41.015625
3201		-50.781250
3202		-44.921875
3203		-54.687500
3204		-48.828125
3205		-56.640625
3206		-50.781250
3207		-58.593750
3208		-54.687500
3209		-62.500000
3210		-56.640625
3211		-64.453125
3212		-60.546875
3213		-66.406250
3214		-62.500000
3215		-68.359375
3216		-64.453125
3217		-72.265625
3218		-66.406250
3219		-72.265625
3220		-70.312500
3221		-76.171875
3222		-70.312500
3223		-76.171875
3224		-72.265625
3225		-78.125000
3226		-74.218750
3227		-80.078125
3228		-76.171875
3229		-80.078125
3230		-76.171875
3231		-82.031250
3232		-78.125000
3233		-82.031250
3234		-78.125000
3235		-82.031250
3236		-80.078125
3237		-83.984375
3238		-80.078125
3239		-82.031250
3240		-80.078125
3241		-82.031250
3242		-80.078125
3243		-83.984375
3244		-80.078125
3245		-82.031250
3246		-80.078125
3247		-82.031250
3248		-78.125000
3249		-82.031250
3250		-78.125000
3251		-80.078125
3252		-76.171875
3253		-80.078125
3254		-76.171875
3255		-78.125000
3256		-74.218750
3257		-76.171875
3258		-72.265625
3259		-74.218750
3260		-70.312500
3261		-72.265625
3262		-68.359375
3263		-70.312500
3264		-66.406250
3265		-68.359375
3266		-64.453125
3267		-66.406250
3268		-62.500000
3269		-62.500000
3270		-58.593750
3271		-60.546875
3272		-56.640625
3273		-58.593750
3274		-52.734375
3275		-54.687500
3276		-48.828125
3277		-52.734375
3278		-46.875000
3279		-48.828125
3280		-42.968750
3281		-44.921875
3282		-41.015625
3283		-41.015625
3284		-37.109375
3285		-39.062500
3286		-33.203125
3287		-35.156250
3288		-29.296875
3289		-31.250000
3290		-25.390625
3291		-27.343750
3292		-21.484375
3293		-23.437500
3294		-17.578125
3295		-19.531250
3296		-13.671875
3297		-15.625000
3298		-9.765625
3299		-11.718750
3300		-5.859375
3301		-7.812500
3302		-1.953125
3303		-3.906250
3304		1.953125
3305		0.000000
3306		5.859375
3307		3.906250
3308		9.765625
3309		7.812500
3310		13.671875
3311		11.718750
3312		17.578125
3313		17.578125
3314		23.437500
3315		19.531250
3316		25.390625
3317		23.437500
3318		29.296875
3319		29.296875
3320		33.203125
3321		31.250000
3322		37.109375
3323		35.156250
3324		41.015625
3325		39.062500
3326		44.921875
3327		42.968750
3328		48.828125
3329		46.875000
3330		52.734375
3331		50.781250
3332		54.687500
3333		52.734375
3334		58.593750
3335		56.640625
3336		62.500000
3337		60.546875
3338		64.453125
3339		60.546875
3340		68.359375
3341		66.406250
3342		70.312500
3343		68.359375
3344		74.218750
3345		72.265625
3346		76.171875
3347		74.218750
3348		78.125000
3349		76.171875
3350		80.078125
3351		78.125000
3352		82.031250
3353		80.078125
3354		83.984375
3355		82.031250
3356		87.890625
3357		85.937500
3358		87.890625
3359		85.937500
3360		89.843750
3361		87.890625
3362		91.796875
3363		89.843750
3364		93.750000
3365		89.843750
3366		95.703125
3367		91.796875
3368		95.703125
3369		91.796875
3370		95.703125
3371		93.750000
3372		97.656250
3373		95.703125
3374		97.656250
3375		95.703125
3376		97.656250
3377		93.750000
3378		99.609375
3379		95.703125
3380		99.609375
3381		95.703125
3382		99.609375
3383		95.703125
3384		99.609375
3385		95.703125
3386		99.609375
3387		95.703125
3388		99.609375
3389		95.703125
3390		97.656250
3391		93.750000
3392		97.656250
3393		91.796875
3394		97.656250
3395		91.796875
3396		95.703125
3397		89.843750
3398		93.750000
3399		89.843750
3400		93.750000
3401		87.890625
3402		91.796875
3403		87.890625
3404		89.843750
3405		83.984375
3406		89.843750
3407		82.031250
3408		85.937500
3409		82.031250
3410		83.984375
3411		78.125000
3412		83.984375
3413		76.171875
3414		80.078125
3415		74.218750
3416		78.125000
3417		70.312500
3418		76.171875
3419		68.359375
3420		72.265625
3421		64.453125
3422		70.312500
3423		62.500000
3424		68.359375
3425		60.546875
3426		64.453125
3427		56.640625
3428		60.546875
3429		52.734375
3430		58.593750
3431		50.781250
3432		54.687500
3433		44.921875
3434		50.781250
3435		42.968750
3436		48.828125
3437		39.062500
3438		44.921875
3439		35.156250
3440		41.015625
3441		31.250000
3442		37.109375
3443		25.390625
3444		33.203125
3445		23.437500
3446		31.250000
3447		19.531250
3448		25.390625
3449		15.625000
3450		21.484375
3451		11.718750
3452		17.578125
3453		7.812500
3454		13.671875
3455		3.906250
3456		9.765625
3457		0.000000
3458		5.859375
3459		-3.906250
3460		1.953125
3461		-7.812500
3462		-1.953125
3463		-11.718750
3464		-5.859375
3465		-15.625000
3466		-9.765625
3467		-19.531250
3468		-15.625000
3469		-23.437500
3470		-17.578125
3471		-27.343750
3472		-21.484375
3473		-31.250000
3474		-25.390625
3475		-35.156250
3476		-29.296875
3477		-39.062500
3478		-33.203125
3479		-42.968750
3480		-37.109375
3481		-46.875000
3482		-41.015625
3483		-48.828125
3484		-42.968750
3485		-52.734375
3486		-46.875000
3487		-54.687500
3488		-50.781250
3489		-58.593750
3490		-54.687500
3491		-60.546875
3492		-56.640625
3493		-64.453125
3494		-60.546875
3495		-66.406250
3496		-62.500000
3497		-68.359375
3498		-64.453125
3499		-70.312500
3500		-66.406250
3501		-74.218750
3502		-68.359375
3503		-74.218750
3504		-70.312500
3505		-76.171875
3506		-72.265625
3507		-78.125000
3508		-74.218750
3509		-78.125000
3510		-76.171875
3511		-80.078125
3512		-76.171875
3513		-82.031250
3514		-78.125000
3515		-82.031250
3516		-78.125000
3517		-82.031250
3518		-80.078125
3519		-82.031250
3520		-80.078125
3521		-83.984375
3522		-80.078125
3523		-83.984375
3524		-80.078125
3525		-82.031250
3526		-80.078125
3527		-82.031250
3528		-80.078125
3529		-82.031250
3530		-78.125000
3531		-82.031250
3532		-78.125000
3533		-80.078125
3534		-76.171875
3535		-78.125000
3536		-76.171875
3537		-78.125000
3538		-74.218750
3539		-76.171875
3540		-72.265625
3541		-74.218750
3542		-70.312500
3543		-72.265625
3544		-68.359375
3545		-70.312500
3546		-66.406250
3547		-68.359375
3548		-64.453125
3549		-66.406250
3550		-60.546875
3551		-64.453125
3552		-58.593750
3553		-60.546875
3554		-56.640625
3555		-58.593750
3556		-52.734375
3557		-56.640625
3558		-50.781250
3559		-52.734375
3560		-46.875000
3561		-48.828125
3562		-44.921875
3563		-44.921875
3564		-41.015625
3565		-41.015625
3566		-37.109375
3567		-39.062500
3568		-33.203125
3569		-35.156250
3570		-29.296875
3571		-31.250000
3572		-25.390625
3573		-27.343750
3574		-21.484375
3575		-23.437500
3576		-17.578125
3577		-19.531250
3578		-13.671875
3579		-15.625000
3580		-9.765625
3581		-11.718750
3582		-5.859375
3583		-7.812500
3584		-1.953125
3585		-3.906250
3586		1.953125
3587		0.000000
3588		5.859375
3589		3.906250
3590		9.765625
3591		7.812500
3592		13.671875
3593		11.718750
3594		17.578125
3595		15.625000
3596		21.484375
3597		19.531250
3598		25.390625
3599		23.437500
3600		29.296875
3601		27.343750
3602		33.203125
3603		31.250000
3604		37.109375
3605		35.156250
3606		41.015625
3607		39.062500
3608		44.921875
3609		42.968750
3610		48.828125
3611		46.875000
3612		50.781250
3613		48.828125
3614		54.687500
3615		52.734375
3616		58.593750
3617		56.640625
3618		60.546875
3619		60.546875
3620		64.453125
3621		62.500000
3622		68.359375
3623		66.406250
3624		70.312500
3625		66.406250
3626		72.265625
3627		70.312500
3628		74.218750
3629		74.218750
3630		78.125000
3631		76.171875
3632		80.078125
3633		78.125000
3634		82.031250
3635		80.078125
3636		83.984375
3637		82.031250
3638		85.937500
3639		83.984375
3640		87.890625
3641		85.937500
3642		89.843750
3643		87.890625
3644		91.796875
3645		89.843750
3646		93.750000
3647		89.843750
3648		93.750000
3649		91.796875
3650		95.703125
3651		91.796875
3652		95.703125
3653		93.750000
3654		97.656250
3655		95.703125
3656		97.656250
3657		95.703125
3658		99.609375
3659		95.703125
3660		99.609375
3661		95.703125
3662		99.609375
3663		95.703125
3664		99.609375
3665		95.703125
3666		99.609375
3667		95.703125
3668		99.609375
3669		95.703125
3670		99.609375
3671		95.703125
3672		97.656250
3673		93.750000
3674		97.656250
3675		93.750000
3676		97.656250
3677		93.750000
3678		95.703125
3679		89.843750
3680		95.703125
3681		89.843750
3682		93.750000
3683		89.843750
3684		93.750000
3685		87.890625
3686		91.796875
3687		85.937500
3688		89.843750
3689		83.984375
3690		87.890625
3691		82.031250
3692		85.937500
3693		78.125000
3694		83.984375
3695		78.125000
3696		82.031250
3697		74.218750
3698		80.078125
3699		72.265625
3700		76.171875
3701		70.312500
3702		74.218750
3703		66.406250
3704		70.312500
3705		64.453125
3706		68.359375
3707		60.546875
3708		66.406250
3709		56.640625
3710		64.453125
3711		54.687500
3712		58.593750
3713		50.781250
3714		56.640625
3715		46.875000
3716		52.734375
3717		42.968750
3718		48.828125
3719		41.015625
3720		46.875000
3721		37.109375
3722		41.015625
3723		33.203125
3724		39.062500
3725		29.296875
3726		33.203125
3727		25.390625
3728		29.296875
3729		19.531250
3730		27.343750
3731		17.578125
3732		23.437500
3733		13.671875
3734		17.578125
3735		9.765625
3736		15.625000
3737		3.906250
3738		9.765625
3739		0.000000
3740		7.812500
3741		-3.906250
3742		1.953125
3743		-7.812500
3744		-1.953125
3745		-11.718750
3746		-5.859375
3747		-15.625000
3748		-9.765625
3749		-19.531250
3750		-13.671875
3751		-23.437500
3752		-17.578125
3753		-27.343750
3754		-21.484375
3755		-31.250000
3756		-25.390625
3757		-35.156250
3758		-29.296875
3759		-39.062500
3760		-31.250000
3761		-41.015625
3762		-37.109375
3763		-46.875000
3764		-41.015625
3765		-48.828125
3766		-42.968750
3767		-52.734375
3768		-46.875000
3769		-54.687500
3770		-50.781250
3771		-58.593750
3772		-52.734375
3773		-60.546875
3774		-56.640625
3775		-62.500000
3776		-58.593750
3777		-66.406250
3778		-62.500000
3779		-68.359375
3780		-64.453125
3781		-70.312500
3782		-66.406250
3783		-72.265625
3784		-68.359375
3785		-74.218750
3786		-70.312500
3787		-76.171875
3788		-72.265625
3789		-78.125000
3790		-74.218750
3791		-78.125000
3792		-74.218750
3793		-80.078125
3794		-76.171875
3795		-82.031250
3796		-78.125000
3797		-82.031250
3798		-78.125000
3799		-83.984375
3800		-78.125000
3801		-82.031250
3802		-80.078125
3803		-83.984375
3804		-80.078125
3805		-83.984375
3806		-80.078125
3807		-83.984375
3808		-80.078125
3809		-83.984375
3810		-80.078125
3811		-82.031250
3812		-80.078125
3813		-82.031250
3814		-78.125000
3815		-80.078125
3816		-78.125000
3817		-80.078125
3818		-76.171875
3819		-78.125000
3820		-76.171875
3821		-78.125000
3822		-74.218750
3823		-76.171875
3824		-70.312500
3825		-74.218750
3826		-68.359375
3827		-72.265625
3828		-68.359375
3829		-68.359375
3830		-64.453125
3831		-66.406250
3832		-62.500000
3833		-64.453125
3834		-60.546875
3835		-62.500000
3836		-56.640625
3837		-58.593750
3838		-54.687500
3839		-56.640625
3840		-50.781250
3841		-52.734375
3842		-48.828125
3843		-50.781250
3844		-44.921875
3845		-46.875000
3846		-41.015625
3847		-42.968750
3848		-37.109375
3849		-39.062500
3850		-35.156250
3851		-35.156250
3852		-31.250000
3853		-33.203125
3854		-27.343750
3855		-29.296875
3856		-23.437500
3857		-25.390625
3858		-19.531250
3859		-21.484375
3860		-15.625000
3861		-17.578125
3862		-11.718750
3863		-13.671875
3864		-7.812500
3865		-9.765625
3866		-3.906250
3867		-5.859375
3868		0.000000
3869		-1.953125
3870		3.906250
3871		1.953125
3872		7.812500
3873		7.812500
3874		11.718750
3875		9.765625
3876		15.625000
3877		13.671875
3878		19.531250
3879		19.531250
3880		25.390625
3881		23.437500
3882		27.343750
3883		27.343750
3884		33.203125
3885		31.250000
3886		35.156250
3887		33.203125
3888		39.062500
3889		37.109375
3890		42.968750
3891		41.015625
3892		46.875000
3893		44.921875
3894		50.781250
3895		48.828125
3896		52.734375
3897		52.734375
3898		58.593750
3899		54.687500
3900		60.546875
3901		58.593750
3902		62.500000
3903		62.500000
3904		66.406250
3905		64.453125
3906		68.359375
3907		66.406250
3908		72.265625
3909		70.312500
3910		74.218750
3911		72.265625
3912		76.171875
3913		76.171875
3914		80.078125
3915		76.171875
3916		82.031250
3917		80.078125
3918		83.984375
3919		82.031250
3920		85.937500
3921		83.984375
3922		87.890625
3923		85.937500
3924		89.843750
3925		87.890625
3926		91.796875
3927		87.890625
3928		91.796875
3929		89.843750
3930		93.750000
3931		91.796875
3932		95.703125
3933		93.750000
3934		95.703125
3935		93.750000
3936		97.656250
3937		93.750000
3938		97.656250
3939		93.750000
3940		97.656250
3941		95.703125
3942		99.609375
3943		95.703125
3944		99.609375
3945		95.703125
3946		97.656250
3947		95.703125
3948		97.656250
3949		95.703125
3950		99.609375
3951		95.703125
3952		99.609375
3953		95.703125
3954		97.656250
3955		93.750000
3956		97.656250
3957		93.750000
3958		97.656250
3959		91.796875
3960		95.703125
3961		91.796875
3962		95.703125
3963		89.843750
3964		93.750000
3965		89.843750
3966		93.750000
3967		87.890625
3968		91.796875
3969		85.937500
3970		89.843750
3971		83.984375
3972		87.890625
3973		82.031250
3974		85.937500
3975		80.078125
3976		83.984375
3977		78.125000
3978		82.031250
3979		76.171875
3980		80.078125
3981		72.265625
3982		76.171875
3983		68.359375
3984		74.218750
3985		66.406250
3986		72.265625
3987		64.453125
3988		68.359375
3989		60.546875
3990		66.406250
3991		58.593750
3992		62.500000
3993		54.687500
3994		60.546875
3995		50.781250
3996		56.640625
3997		48.828125
3998		52.734375
3999		44.921875
4000		48.828125
4001		41.015625
4002		46.875000
4003		37.109375
4004		42.968750
4005		33.203125
4006		39.062500
4007		29.296875
4008		35.156250
4009		25.390625
4010		31.250000
4011		21.484375
4012		27.343750
4013		17.578125
4014		23.437500
4015		13.671875
4016		19.531250
4017		9.765625
4018		15.625000
4019		5.859375
4020		11.718750
4021		1.953125
4022		7.812500
4023		-3.906250
4024		3.906250
4025		-5.859375
4026		-1.953125
4027		-9.765625
4028		-3.906250
4029		-13.671875
4030		-7.812500
4031		-17.578125
4032		-13.671875
4033		-23.437500
4034		-17.578125
4035		-27.343750
4036		-19.531250
4037		-29.296875
4038		-23.437500
4039		-33.203125
4040		-29.296875
4041		-37.109375
4042		-33.203125
4043		-41.015625
4044		-35.156250
4045		-44.921875
4046		-39.062500
4047		-46.875000
4048		-42.968750
4049		-50.781250
4050		-46.875000
4051		-54.687500
4052		-48.828125
4053		-56.640625
4054		-52.734375
4055		-60.546875
4056		-54.687500
4057		-62.500000
4058		-58.593750
4059		-64.453125
4060		-60.546875
4061		-68.359375
4062		-62.500000
4063		-70.312500
4064		-66.406250
4065		-72.265625
4066		-68.359375
4067		-74.218750
4068		-70.312500
4069		-76.171875
4070		-70.312500
4071		-76.171875
4072		-74.218750
4073		-78.125000
4074		-76.171875
4075		-80.078125
4076		-76.171875
4077		-82.031250
4078		-76.171875
4079		-82.031250
4080		-78.125000
4081		-82.031250
4082		-80.078125
4083		-83.984375
4084		-80.078125
4085		-83.984375
4086		-80.078125
4087		-83.984375
4088		-80.078125
4089		-83.984375
4090		-80.078125
4091		-83.984375
4092		-80.078125
4093		-82.031250
4094		-80.078125
4095		-82.031250
4096		-78.125000
4097		-80.078125
4098		-78.125000
4099		-80.078125
4100		-74.218750
4101		-78.125000
4102		-74.218750
4103		-78.125000
4104		-74.218750
4105		-76.171875
4106		-72.265625
4107		-74.218750
4108		-68.359375
4109		-72.265625
4110		-68.359375
4111		-70.312500
4112		-66.406250
4113		-66.406250
4114		-62.500000
4115		-64.453125
4116		-60.546875
4117		-62.500000
4118		-56.640625
4119		-58.593750
4120		-54.687500
4121		-56.640625
4122		-50.781250
4123		-52.734375
4124		-48.828125
4125		-50.781250
4126		-44.921875
4127		-46.875000
4128		-41.015625
4129		-44.921875
4130		-39.062500
4131		-41.015625
4132		-35.156250
4133		-37.109375
4134		-31.250000
4135		-33.203125
4136		-27.343750
4137		-29.296875
4138		-23.437500
4139		-25.390625
4140		-19.531250
4141		-21.484375
4142		-15.625000
4143		-17.578125
4144		-11.718750
4145		-13.671875
4146		-7.812500
4147		-9.765625
4148		-3.906250
4149		-5.859375
4150		0.000000
4151		-3.906250
4152		3.906250
4153		1.953125
4154		7.812500
4155		5.859375
4156		11.718750
4157		9.765625
4158		15.625000
4159		13.671875
4160		21.484375
4161		17.578125
4162		23.437500
4163		21.484375
4164		27.343750
4165		25.390625
4166		31.250000
4167		29.296875
4168		35.156250
4169		33.203125
4170		39.062500
4171		37.109375
4172		42.968750
4173		41.015625
4174		46.875000
4175		44.921875
4176		50.781250
4177		48.828125
4178		52.734375
4179		50.781250
4180		56.640625
4181		54.687500
4182		58.593750
4183		58.593750
4184		62.500000
4185		60.546875
4186		66.406250
4187		64.453125
4188		70.312500
4189		66.406250
4190		70.312500
4191		68.359375
4192		74.218750
4193		72.265625
4194		76.171875
4195		74.218750
4196		80.078125
4197		76.171875
4198		80.078125
4199		80.078125
4200		83.984375
4201		82.031250
4202		85.937500
4203		83.984375
4204		87.890625
4205		85.937500
4206		89.843750
4207		87.890625
4208		91.796875
4209		87.890625
4210		91.796875
4211		89.843750
4212		93.750000
4213		91.796875
4214		93.750000
4215		91.796875
4216		95.703125
4217		91.796875
4218		95.703125
4219		93.750000
4220		97.656250
4221		93.750000
4222		97.656250
4223		95.703125
4224		97.656250
4225		95.703125
4226		97.656250
4227		95.703125
4228		99.609375
4229		95.703125
4230		97.656250
4231		95.703125
4232		97.656250
4233		95.703125
4234		97.656250
4235		93.750000
4236		99.609375
4237		93.750000
4238		97.656250
4239		93.750000
4240		95.703125
4241		91.796875
4242		95.703125
4243		91.796875
4244		95.703125
4245		89.843750
4246		93.750000
4247		87.890625
4248		91.796875
4249		87.890625
4250		89.843750
4251		85.937500
4252		89.843750
4253		83.984375
4254		87.890625
4255		82.031250
4256		85.937500
4257		80.078125
4258		83.984375
4259		76.171875
4260		82.031250
4261		74.218750
4262		80.078125
4263		72.265625
4264		76.171875
4265		70.312500
4266		74.218750
4267		66.406250
4268		72.265625
4269		62.500000
4270		68.359375
4271		60.546875
4272		66.406250
4273		58.593750
4274		62.500000
4275		54.687500
4276		58.593750
4277		50.781250
4278		56.640625
4279		46.875000
4280		52.734375
4281		44.921875
4282		48.828125
4283		41.015625
4284		44.921875
4285		37.109375
4286		42.968750
4287		33.203125
4288		39.062500
4289		29.296875
4290		35.156250
4291		25.390625
4292		31.250000
4293		21.484375
4294		27.343750
4295		17.578125
4296		23.437500
4297		13.671875
4298		19.531250
4299		9.765625
4300		13.671875
4301		3.906250
4302		9.765625
4303		1.953125
4304		5.859375
4305		-3.906250
4306		3.906250
4307		-7.812500
4308		0.000000
4309		-11.718750
4310		-3.906250
4311		-15.625000
4312		-9.765625
4313		-19.531250
4314		-13.671875
4315		-23.437500
4316		-17.578125
4317		-27.343750
4318		-21.484375
4319		-31.250000
4320		-25.390625
4321		-35.156250
4322		-27.343750
4323		-39.062500
4324		-33.203125
4325		-42.968750
4326		-35.156250
4327		-44.921875
4328		-39.062500
4329		-48.828125
4330		-41.015625
4331		-52.734375
4332		-44.921875
4333		-54.687500
4334		-50.781250
4335		-56.640625
4336		-52.734375
4337		-60.546875
4338		-54.687500
4339		-64.453125
4340		-58.593750
4341		-66.406250
4342		-60.546875
4343		-68.359375
4344		-64.453125
4345		-70.312500
4346		-66.406250
4347		-72.265625
4348		-68.359375
4349		-74.218750
4350		-70.312500
4351		-78.125000
4352		-72.265625
4353		-78.125000
4354		-74.218750
4355		-80.078125
4356		-74.218750
4357		-82.031250
4358		-76.171875
4359		-82.031250
4360		-76.171875
4361		-83.984375
4362		-78.125000
4363		-83.984375
4364		-78.125000
4365		-83.984375
4366		-80.078125
4367		-83.984375
4368		-80.078125
4369		-83.984375
4370		-80.078125
4371		-83.984375
4372		-80.078125
4373		-83.984375
4374		-80.078125
4375		-83.984375
4376		-78.125000
4377		-82.031250
4378		-78.125000
4379		-82.031250
4380		-76.171875
4381		-82.031250
4382		-76.171875
4383		-78.125000
4384		-76.171875
4385		-78.125000
4386		-72.265625
4387		-78.125000
4388		-72.265625
4389		-74.218750
4390		-68.359375
4391		-72.265625
4392		-66.406250
4393		-70.312500
4394		-64.453125
4395		-68.359375
4396		-62.500000
4397		-66.406250
4398		-60.546875
4399		-62.500000
4400		-58.593750
4401		-60.546875
4402		-54.687500
4403		-56.640625
4404		-50.781250
4405		-54.687500
4406		-46.875000
4407		-52.734375
4408		-44.921875
4409		-48.828125
4410		-41.015625
4411		-44.921875
4412		-37.109375
4413		-41.015625
4414		-35.156250
4415		-37.109375
4416		-31.250000
4417		-33.203125
4418		-27.343750
4419		-29.296875
4420		-23.437500
4421		-25.390625
4422		-21.484375
4423		-21.484375
4424		-17.578125
4425		-17.578125
4426		-11.718750
4427		-13.671875
4428		-7.812500
4429		-9.765625
4430		-5.859375
4431		-5.859375
4432		0.000000
4433		-1.953125
4434		3.906250
4435		1.953125
4436		7.812500
4437		5.859375
4438		11.718750
4439		9.765625
4440		15.625000
4441		13.671875
4442		19.531250
4443		17.578125
4444		23.437500
4445		21.484375
4446		27.343750
4447		25.390625
4448		31.250000
4449		29.296875
4450		35.156250
4451		33.203125
4452		39.062500
4453		37.109375
4454		42.968750
4455		41.015625
4456		46.875000
4457		44.921875
4458		48.828125
4459		46.875000
4460		52.734375
4461		50.781250
4462		56.640625
4463		54.687500
4464		58.593750
4465		56.640625
4466		62.500000
4467		60.546875
4468		64.453125
4469		64.453125
4470		68.359375
4471		66.406250
4472		70.312500
4473		70.312500
4474		74.218750
4475		72.265625
4476		76.171875
4477		74.218750
4478		78.125000
4479		78.125000
4480		80.078125
4481		80.078125
4482		82.031250
4483		82.031250
4484		85.937500
4485		83.984375
4486		85.937500
4487		85.937500
4488		87.890625
4489		87.890625
4490		91.796875
4491		87.890625
4492		91.796875
4493		89.843750
4494		93.750000
4495		91.796875
4496		93.750000
4497		91.796875
4498		95.703125
4499		93.750000
4500		97.656250
4501		93.750000
4502		97.656250
4503		95.703125
4504		97.656250
4505		95.703125
4506		97.656250
4507		95.703125
4508		97.656250
4509		95.703125
4510		97.656250
4511		95.703125
4512		97.656250
4513		95.703125
4514		99.609375
4515		95.703125
4516		97.656250
4517		95.703125
4518		97.656250
4519		93.750000
4520		99.609375
4521		91.796875
4522		99.609375
4523		89.843750
4524		99.609375
4525		89.843750
4526		97.656250
4527		89.843750
4528		93.750000
4529		89.843750
4530		91.796875
4531		87.890625
4532		89.843750
4533		85.937500
4534		89.843750
4535		83.984375
4536		87.890625
4537		80.078125
4538		87.890625
4539		78.125000
4540		87.890625
4541		76.171875
4542		83.984375
4543		76.171875
4544		80.078125
4545		72.265625
4546		76.171875
4547		70.312500
4548		74.218750
4549		68.359375
4550		72.265625
4551		64.453125
4552		68.359375
4553		58.593750
4554		66.406250
4555		54.687500
4556		66.406250
4557		52.734375
4558		62.500000
4559		50.781250
4560		60.546875
4561		48.828125
4562		52.734375
4563		44.921875
4564		50.781250
4565		41.015625
4566		46.875000
4567		37.109375
4568		42.968750
4569		33.203125
4570		39.062500
4571		27.343750
4572		37.109375
4573		23.437500
4574		35.156250
4575		21.484375
4576		29.296875
4577		17.578125
4578		23.437500
4579		13.671875
4580		19.531250
4581		9.765625
4582		15.625000
4583		5.859375
4584		11.718750
4585		1.953125
4586		7.812500
4587		-5.859375
4588		5.859375
4589		-9.765625
4590		1.953125
4591		-13.671875
4592		-1.953125
4593		-13.671875
4594		-7.812500
4595		-17.578125
4596		-11.718750
4597		-21.484375
4598		-17.578125
4599		-25.390625
4600		-21.484375
4601		-29.296875
4602		-23.437500
4603		-37.109375
4604		-27.343750
4605		-39.062500
4606		-29.296875
4607		-44.921875
4608		-31.250000
4609		-44.921875
4610		-35.156250
4611		-46.875000
4612		-42.968750
4613		-50.781250
4614		-46.875000
4615		-52.734375
4616		-48.828125
4617		-56.640625
4618		-52.734375
4619		-60.546875
4620		-54.687500
4621		-64.453125
4622		-54.687500
4623		-68.359375
4624		-58.593750
4625		-70.312500
4626		-60.546875
4627		-70.312500
4628		-64.453125
4629		-72.265625
4630		-68.359375
4631		-74.218750
4632		-70.312500
4633		-76.171875
4634		-72.265625
4635		-76.171875
4636		-74.218750
4637		-82.031250
4638		-72.265625
4639		-82.031250
4640		-72.265625
4641		-83.984375
4642		-74.218750
4643		-83.984375
4644		-76.171875
4645		-82.031250
4646		-80.078125
4647		-82.031250
4648		-80.078125
4649		-83.984375
4650		-80.078125
4651		-82.031250
4652		-80.078125
4653		-83.984375
4654		-80.078125
4655		-85.937500
4656		-76.171875
4657		-83.984375
4658		-76.171875
4659		-83.984375
4660		-74.218750
4661		-80.078125
4662		-78.125000
4663		-80.078125
4664		-76.171875
4665		-78.125000
4666		-74.218750
4667		-76.171875
4668		-74.218750
4669		-76.171875
4670		-72.265625
4671		-76.171875
4672		-66.406250
4673		-76.171875
4674		-64.453125
4675		-72.265625
4676		-60.546875
4677		-68.359375
4678		-62.500000
4679		-64.453125
4680		-60.546875
4681		-62.500000
4682		-58.593750
4683		-58.593750
4684		-54.687500
4685		-58.593750
4686		-52.734375
4687		-52.734375
4688		-48.828125
4689		-54.687500
4690		-42.968750
4691		-50.781250
4692		-39.062500
4693		-46.875000
4694		-39.062500
4695		-41.015625
4696		-35.156250
4697		-37.109375
4698		-31.250000
4699		-33.203125
4700		-27.343750
4701		-29.296875
4702		-23.437500
4703		-25.390625
4704		-21.484375
4705		-21.484375
4706		-15.625000
4707		-19.531250
4708		-9.765625
4709		-13.671875
4710		-9.765625
4711		-9.765625
4712		-3.906250
4713		-5.859375
4714		0.000000
4715		-1.953125
4716		3.906250
4717		1.953125
4718		7.812500
4719		5.859375
4720		11.718750
4721		9.765625
4722		15.625000
4723		13.671875
4724		21.484375
4725		15.625000
4726		25.390625
4727		21.484375
4728		27.343750
4729		25.390625
4730		31.250000
4731		29.296875
4732		35.156250
4733		33.203125
4734		39.062500
4735		37.109375
4736		42.968750
4737		41.015625
4738		46.875000
4739		44.921875
4740		48.828125
4741		46.875000
4742		54.687500
4743		50.781250
4744		56.640625
4745		54.687500
4746		58.593750
4747		58.593750
4748		62.500000
4749		60.546875
4750		64.453125
4751		64.453125
4752		68.359375
4753		66.406250
4754		70.312500
4755		70.312500
4756		74.218750
4757		72.265625
4758		76.171875
4759		74.218750
4760		78.125000
4761		78.125000
4762		80.078125
4763		80.078125
4764		83.984375
4765		82.031250
4766		83.984375
4767		83.984375
4768		85.937500
4769		85.937500
4770		87.890625
4771		87.890625
4772		89.843750
4773		87.890625
4774		91.796875
4775		89.843750
4776		93.750000
4777		91.796875
4778		93.750000
4779		91.796875
4780		95.703125
4781		93.750000
4782		95.703125
4783		95.703125
4784		97.656250
4785		95.703125
4786		97.656250
4787		95.703125
4788		97.656250
4789		95.703125
4790		99.609375
4791		95.703125
4792		97.656250
4793		95.703125
4794		97.656250
4795		95.703125
4796		99.609375
4797		95.703125
4798		97.656250
4799		95.703125
4800		97.656250
4801		93.750000
4802		97.656250
4803		93.750000
4804		97.656250
4805		93.750000
4806		95.703125
4807		91.796875
4808		95.703125
4809		91.796875
4810		93.750000
4811		87.890625
4812		93.750000
4813		87.890625
4814		91.796875
4815		85.937500
4816		89.843750
4817		83.984375
4818		87.890625
4819		82.031250
4820		85.937500
4821		80.078125
4822		83.984375
4823		78.125000
4824		82.031250
4825		76.171875
4826		80.078125
4827		74.218750
4828		78.125000
4829		70.312500
4830		74.218750
4831		68.359375
4832		72.265625
4833		64.453125
4834		70.312500
4835		62.500000
4836		66.406250
4837		58.593750
4838		64.453125
4839		54.687500
4840		60.546875
4841		52.734375
4842		56.640625
4843		48.828125
4844		54.687500
4845		44.921875
4846		50.781250
4847		41.015625
4848		46.875000
4849		39.062500
4850		42.968750
4851		35.156250
4852		39.062500
4853		31.250000
4854		35.156250
4855		25.390625
4856		31.250000
4857		21.484375
4858		29.296875
4859		19.531250
4860		25.390625
4861		13.671875
4862		19.531250
4863		11.718750
4864		17.578125
4865		7.812500
4866		13.671875
4867		3.906250
4868		7.812500
4869		-1.953125
4870		3.906250
4871		-5.859375
4872		0.000000
4873		-9.765625
4874		-3.906250
4875		-13.671875
4876		-7.812500
4877		-17.578125
4878		-11.718750
4879		-21.484375
4880		-15.625000
4881		-25.390625
4882		-19.531250
4883		-29.296875
4884		-23.437500
4885		-33.203125
4886		-27.343750
4887		-35.156250
4888		-31.250000
4889		-41.015625
4890		-35.156250
4891		-42.968750
4892		-37.109375
4893		-46.875000
4894		-41.015625
4895		-50.781250
4896		-44.921875
4897		-54.687500
4898		-46.875000
4899		-56.640625
4900		-50.781250
4901		-58.593750
4902		-54.687500
4903		-62.500000
4904		-56.640625
4905		-64.453125
4906		-60.546875
4907		-66.406250
4908		-60.546875
4909		-68.359375
4910		-64.453125
4911		-70.312500
4912		-68.359375
4913		-74.218750
4914		-68.359375
4915		-74.218750
4916		-70.312500
4917		-76.171875
4918		-72.265625
4919		-78.125000
4920		-74.218750
4921		-78.125000
4922		-76.171875
4923		-82.031250
4924		-76.171875
4925		-82.031250
4926		-78.125000
4927		-82.031250
4928		-80.078125
4929		-82.031250
4930		-80.078125
4931		-83.984375
4932		-80.078125
4933		-82.031250
4934		-80.078125
4935		-82.031250
4936		-80.078125
4937		-82.031250
4938		-80.078125
4939		-83.984375
4940		-78.125000
4941		-82.031250
4942		-78.125000
4943		-82.031250
4944		-78.125000
4945		-80.078125
4946		-76.171875
4947		-78.125000
4948		-74.218750
4949		-78.125000
4950		-74.218750
4951		-76.171875
4952		-72.265625
4953		-74.218750
4954		-70.312500
4955		-72.265625
4956		-68.359375
4957		-70.312500
4958		-64.453125
4959		-66.406250
4960		-64.453125
4961		-64.453125
4962		-60.546875
4963		-62.500000
4964		-58.593750
4965		-60.546875
4966		-54.687500
4967		-58.593750
4968		-52.734375
4969		-54.687500
4970		-48.828125
4971		-50.781250
4972		-46.875000
4973		-46.875000
4974		-42.968750
4975		-44.921875
4976		-39.062500
4977		-41.015625
4978		-35.156250
4979		-39.062500
4980		-33.203125
4981		-35.156250
4982		-27.343750
4983		-29.296875
4984		-25.390625
4985		-25.390625
4986		-21.484375
4987		-21.484375
4988		-17.578125
4989		-17.578125
4990		-13.671875
4991		-15.625000
4992		-9.765625
4993		-9.765625
4994		-5.859375
4995		-7.812500
4996		-1.953125
4997		-1.953125
4998		3.906250
4999		1.953125
5000		7.812500
5001		5.859375
5002		11.718750
5003		7.812500
5004		15.625000
5005		13.671875
5006		19.531250
5007		17.578125
5008		23.437500
5009		21.484375
5010		27.343750
5011		25.390625
5012		31.250000
5013		29.296875
5014		35.156250
5015		33.203125
5016		37.109375
5017		37.109375
5018		41.015625
5019		41.015625
5020		44.921875
5021		42.968750
5022		48.828125
5023		46.875000
5024		52.734375
5025		50.781250
5026		56.640625
5027		54.687500
5028		58.593750
5029		56.640625
5030		62.500000
5031		60.546875
5032		64.453125
5033		64.453125
5034		68.359375
5035		66.406250
5036		70.312500
5037		70.312500
5038		74.218750
5039		72.265625
5040		76.171875
5041		74.218750
5042		78.125000
5043		78.125000
5044		80.078125
5045		80.078125
5046		82.031250
5047		82.031250
5048		85.937500
5049		83.984375
5050		87.890625
5051		85.937500
5052		89.843750
5053		87.890625
5054		89.843750
5055		87.890625
5056		91.796875
5057		89.843750
5058		93.750000
5059		91.796875
5060		93.750000
5061		91.796875
5062		95.703125
5063		93.750000
5064		97.656250
5065		93.750000
5066		97.656250
5067		95.703125
5068		97.656250
5069		95.703125
5070		97.656250
5071		95.703125
5072		99.609375
5073		95.703125
5074		99.609375
5075		97.656250
5076		99.609375
5077		95.703125
5078		99.609375
5079		95.703125
5080		99.609375
5081		95.703125
5082		97.656250
5083		95.703125
5084		97.656250
5085		95.703125
5086		97.656250
5087		93.750000
5088		95.703125
5089		91.796875
5090		95.703125
5091		91.796875
5092		93.750000
5093		89.843750
5094		93.750000
5095		89.843750
5096		91.796875
5097		85.937500
5098		89.843750
5099		85.937500
5100		89.843750
5101		83.984375
5102		85.937500
5103		82.031250
5104		83.984375
5105		80.078125
5106		82.031250
5107		76.171875
5108		80.078125
5109		74.218750
5110		78.125000
5111		72.265625
5112		76.171875
5113		68.359375
5114		74.218750
5115		66.406250
5116		70.312500
5117		62.500000
5118		68.359375
5119		60.546875
5120		64.453125
5121		56.640625
5122		62.500000
5123		52.734375
5124		58.593750
5125		50.781250
5126		54.687500
5127		46.875000
5128		50.781250
5129		42.968750
5130		48.828125
5131		39.062500
5132		44.921875
5133		35.156250
5134		41.015625
5135		31.250000
5136		37.109375
5137		27.343750
5138		33.203125
5139		23.437500
5140		29.296875
5141		19.531250
5142		25.390625
5143		13.671875
5144		23.437500
5145		11.718750
5146		17.578125
5147		7.812500
5148		13.671875
5149		3.906250
5150		9.765625
5151		0.000000
5152		5.859375
5153		-3.906250
5154		1.953125
5155		-7.812500
5156		-1.953125
5157		-11.718750
5158		-5.859375
5159		-17.578125
5160		-9.765625
5161		-19.531250
5162		-13.671875
5163		-23.437500
5164		-19.531250
5165		-27.343750
5166		-23.437500
5167		-31.250000
5168		-25.390625
5169		-35.156250
5170		-29.296875
5171		-39.062500
5172		-33.203125
5173		-42.968750
5174		-37.109375
5175		-46.875000
5176		-41.015625
5177		-48.828125
5178		-42.968750
5179		-52.734375
5180		-46.875000
5181		-54.687500
5182		-50.781250
5183		-58.593750
5184		-52.734375
5185		-60.546875
5186		-56.640625
5187		-64.453125
5188		-58.593750
5189		-66.406250
5190		-60.546875
5191		-68.359375
5192		-64.453125
5193		-72.265625
5194		-64.453125
5195		-72.265625
5196		-68.359375
5197		-74.218750
5198		-70.312500
5199		-76.171875
5200		-72.265625
5201		-78.125000
5202		-74.218750
5203		-78.125000
5204		-74.218750
5205		-80.078125
5206		-76.171875
5207		-80.078125
5208		-78.125000
5209		-83.984375
5210		-78.125000
5211		-83.984375
5212		-78.125000
5213		-83.984375
5214		-80.078125
5215		-82.031250
5216		-80.078125
5217		-82.031250
5218		-80.078125
5219		-82.031250
5220		-80.078125
5221		-82.031250
5222		-80.078125
5223		-82.031250
5224		-78.125000
5225		-82.031250
5226		-76.171875
5227		-82.031250
5228		-74.218750
5229		-80.078125
5230		-76.171875
5231		-78.125000
5232		-74.218750
5233		-76.171875
5234		-72.265625
5235		-74.218750
5236		-70.312500
5237		-72.265625
5238		-68.359375
5239		-70.312500
5240		-66.406250
5241		-68.359375
5242		-64.453125
5243		-66.406250
5244		-60.546875
5245		-64.453125
5246		-58.593750
5247		-60.546875
5248		-56.640625
5249		-56.640625
5250		-52.734375
5251		-54.687500
5252		-50.781250
5253		-50.781250
5254		-46.875000
5255		-48.828125
5256		-42.968750
5257		-44.921875
5258		-41.015625
5259		-41.015625
5260		-35.156250
5261		-41.015625
5262		-31.250000
5263		-35.156250
5264		-29.296875
5265		-31.250000
5266		-25.390625
5267		-27.343750
5268		-21.484375
5269		-23.437500
5270		-17.578125
5271		-19.531250
5272		-13.671875
5273		-15.625000
5274		-9.765625
5275		-11.718750
5276		-5.859375
5277		-9.765625
5278		0.000000
5279		-3.906250
5280		1.953125
5281		0.000000
5282		5.859375
5283		3.906250
5284		9.765625
5285		9.765625
5286		13.671875
5287		13.671875
5288		17.578125
5289		15.625000
5290		21.484375
5291		19.531250
5292		25.390625
5293		23.437500
5294		31.250000
5295		27.343750
5296		33.203125
5297		31.250000
5298		37.109375
5299		35.156250
5300		41.015625
5301		39.062500
5302		44.921875
5303		42.968750
5304		48.828125
5305		46.875000
5306		50.781250
5307		48.828125
5308		54.687500
5309		52.734375
5310		58.593750
5311		54.687500
5312		62.500000
5313		58.593750
5314		64.453125
5315		62.500000
5316		66.406250
5317		66.406250
5318		70.312500
5319		68.359375
5320		72.265625
5321		70.312500
5322		74.218750
5323		74.218750
5324		78.125000
5325		76.171875
5326		80.078125
5327		78.125000
5328		82.031250
5329		80.078125
5330		83.984375
5331		82.031250
5332		85.937500
5333		83.984375
5334		87.890625
5335		85.937500
5336		89.843750
5337		87.890625
5338		91.796875
5339		89.843750
5340		93.750000
5341		91.796875
5342		93.750000
5343		91.796875
5344		95.703125
5345		93.750000
5346		95.703125
5347		93.750000
5348		97.656250
5349		93.750000
5350		97.656250
5351		95.703125
5352		97.656250
5353		93.750000
5354		97.656250
5355		95.703125
5356		97.656250
5357		95.703125
5358		99.609375
5359		95.703125
5360		97.656250
5361		93.750000
5362		99.609375
5363		95.703125
5364		97.656250
5365		93.750000
5366		97.656250
5367		93.750000
5368		97.656250
5369		93.750000
5370		95.703125
5371		91.796875
5372		95.703125
5373		91.796875
5374		93.750000
5375		89.843750
5376		93.750000
5377		87.890625
5378		91.796875
5379		85.937500
5380		89.843750
5381		83.984375
5382		87.890625
5383		82.031250
5384		85.937500
5385		80.078125
5386		83.984375
5387		78.125000
5388		82.031250
5389		76.171875
5390		80.078125
5391		74.218750
5392		78.125000
5393		70.312500
5394		74.218750
5395		68.359375
5396		72.265625
5397		64.453125
5398		70.312500
5399		62.500000
5400		66.406250
5401		60.546875
5402		64.453125
5403		56.640625
5404		60.546875
5405		52.734375
5406		58.593750
5407		48.828125
5408		54.687500
5409		46.875000
5410		50.781250
5411		42.968750
5412		46.875000
5413		39.062500
5414		42.968750
5415		35.156250
5416		41.015625
5417		31.250000
5418		37.109375
5419		27.343750
5420		33.203125
5421		23.437500
5422		29.296875
5423		19.531250
5424		25.390625
5425		15.625000
5426		21.484375
5427		11.718750
5428		17.578125
5429		7.812500
5430		13.671875
5431		3.906250
5432		9.765625
5433		0.000000
5434		5.859375
5435		-3.906250
5436		0.000000
5437		-7.812500
5438		-3.906250
5439		-11.718750
5440		-7.812500
5441		-15.625000
5442		-11.718750
5443		-19.531250
5444		-15.625000
5445		-23.437500
5446		-19.531250
5447		-27.343750
5448		-23.437500
5449		-31.250000
5450		-27.343750
5451		-35.156250
5452		-31.250000
5453		-39.062500
5454		-35.156250
5455		-42.968750
5456		-37.109375
5457		-46.875000
5458		-41.015625
5459		-48.828125
5460		-44.921875
5461		-52.734375
5462		-48.828125
5463		-54.687500
5464		-50.781250
5465		-58.593750
5466		-54.687500
5467		-62.500000
5468		-56.640625
5469		-64.453125
5470		-60.546875
5471		-66.406250
5472		-62.500000
5473		-68.359375
5474		-64.453125
5475		-72.265625
5476		-68.359375
5477		-74.218750
5478		-70.312500
5479		-74.218750
5480		-72.265625
5481		-76.171875
5482		-74.218750
5483		-78.125000
5484		-76.171875
5485		-80.078125
5486		-76.171875
5487		-80.078125
5488		-78.125000
5489		-82.031250
5490		-78.125000
5491		-82.031250
5492		-80.078125
5493		-82.031250
5494		-80.078125
5495		-82.031250
5496		-80.078125
5497		-83.984375
5498		-80.078125
5499		-83.984375
5500		-80.078125
5501		-83.984375
5502		-80.078125
5503		-82.031250
5504		-80.078125
5505		-82.031250
5506		-80.078125
5507		-82.031250
5508		-78.125000
5509		-80.078125
5510		-78.125000
5511		-80.078125
5512		-76.171875
5513		-78.125000
5514		-74.218750
5515		-76.171875
5516		-74.218750
5517		-74.218750
5518		-72.265625
5519		-72.265625
5520		-68.359375
5521		-70.312500
5522		-68.359375
5523		-68.359375
5524		-64.453125
5525		-66.406250
5526		-62.500000
5527		-64.453125
5528		-60.546875
5529		-60.546875
5530		-56.640625
5531		-58.593750
5532		-54.687500
5533		-54.687500
5534		-50.781250
5535		-52.734375
5536		-48.828125
5537		-48.828125
5538		-44.921875
5539		-46.875000
5540		-41.015625
5541		-42.968750
5542		-37.109375
5543		-39.062500
5544		-35.156250
5545		-35.156250
5546		-31.250000
5547		-31.250000
5548		-27.343750
5549		-27.343750
5550		-23.437500
5551		-23.437500
5552		-19.531250
5553		-19.531250
5554		-15.625000
5555		-15.625000
5556		-11.718750
5557		-11.718750
5558		-5.859375
5559		-7.812500
5560		-3.906250
5561		-3.906250
5562		0.000000
5563		0.000000
5564		5.859375
5565		3.906250
5566		9.765625
5567		7.812500
5568		13.671875
5569		11.718750
5570		17.578125
5571		15.625000
5572		21.484375
5573		19.531250
5574		25.390625
5575		23.437500
5576		29.296875
5577		27.343750
5578		33.203125
5579		31.250000
5580		37.109375
5581		35.156250
5582		41.015625
5583		39.062500
5584		42.968750
5585		42.968750
5586		46.875000
5587		46.875000
5588		50.781250
5589		48.828125
5590		54.687500
5591		52.734375
5592		56.640625
5593		56.640625
5594		60.546875
5595		58.593750
5596		64.453125
5597		62.500000
5598		66.406250
5599		64.453125
5600		68.359375
5601		68.359375
5602		72.265625
5603		70.312500
5604		74.218750
5605		74.218750
5606		78.125000
5607		76.171875
5608		80.078125
5609		78.125000
5610		82.031250
5611		80.078125
5612		83.984375
5613		82.031250
5614		85.937500
5615		83.984375
5616		87.890625
5617		85.937500
5618		89.843750
5619		87.890625
5620		89.843750
5621		89.843750
5622		91.796875
5623		89.843750
5624		93.750000
5625		91.796875
5626		93.750000
5627		93.750000
5628		95.703125
5629		93.750000
5630		95.703125
5631		93.750000
5632		97.656250
5633		95.703125
5634		97.656250
5635		95.703125
5636		99.609375
5637		95.703125
5638		97.656250
5639		95.703125
5640		97.656250
5641		95.703125
5642		99.609375
5643		95.703125
5644		97.656250
5645		95.703125
5646		97.656250
5647		95.703125
5648		97.656250
5649		93.750000
5650		97.656250
5651		93.750000
5652		95.703125
5653		91.796875
5654		95.703125
5655		91.796875
5656		93.750000
5657		89.843750
5658		93.750000
5659		87.890625
5660		91.796875
5661		87.890625
5662		89.843750
5663		85.937500
5664		87.890625
5665		83.984375
5666		85.937500
5667		82.031250
5668		83.984375
5669		80.078125
5670		82.031250
5671		76.171875
5672		80.078125
5673		74.218750
5674		78.125000
5675		72.265625
5676		76.171875
5677		68.359375
5678		72.265625
5679		66.406250
5680		70.312500
5681		64.453125
5682		68.359375
5683		60.546875
5684		64.453125
5685		56.640625
5686		62.500000
5687		54.687500
5688		58.593750
5689		50.781250
5690		54.687500
5691		46.875000
5692		52.734375
5693		42.968750
5694		48.828125
5695		39.062500
5696		44.921875
5697		35.156250
5698		41.015625
5699		33.203125
5700		37.109375
5701		29.296875
5702		33.203125
5703		25.390625
5704		31.250000
5705		21.484375
5706		25.390625
5707		17.578125
5708		21.484375
5709		11.718750
5710		19.531250
5711		7.812500
5712		13.671875
5713		3.906250
5714		9.765625
5715		0.000000
5716		5.859375
5717		-3.906250
5718		1.953125
5719		-7.812500
5720		-1.953125
5721		-11.718750
5722		-5.859375
5723		-15.625000
5724		-9.765625
5725		-19.531250
5726		-13.671875
5727		-23.437500
5728		-17.578125
5729		-27.343750
5730		-21.484375
5731		-31.250000
5732		-25.390625
5733		-35.156250
5734		-29.296875
5735		-39.062500
5736		-33.203125
5737		-42.968750
5738		-37.109375
5739		-44.921875
5740		-41.015625
5741		-48.828125
5742		-44.921875
5743		-52.734375
5744		-46.875000
5745		-54.687500
5746		-50.781250
5747		-58.593750
5748		-52.734375
5749		-60.546875
5750		-56.640625
5751		-62.500000
5752		-58.593750
5753		-66.406250
5754		-62.500000
5755		-68.359375
5756		-64.453125
5757		-70.312500
5758		-66.406250
5759		-72.265625
5760		-68.359375
5761		-74.218750
5762		-70.312500
5763		-76.171875
5764		-72.265625
5765		-78.125000
5766		-74.218750
5767		-78.125000
5768		-76.171875
5769		-80.078125
5770		-76.171875
5771		-82.031250
5772		-78.125000
5773		-82.031250
5774		-80.078125
5775		-82.031250
5776		-80.078125
5777		-82.031250
5778		-80.078125
5779		-83.984375
5780		-80.078125
5781		-83.984375
5782		-80.078125
5783		-82.031250
5784		-80.078125
5785		-82.031250
5786		-80.078125
5787		-82.031250
5788		-80.078125
5789		-82.031250
5790		-78.125000
5791		-80.078125
5792		-78.125000
5793		-80.078125
5794		-76.171875
5795		-78.125000
5796		-74.218750
5797		-76.171875
5798		-74.218750
5799		-74.218750
5800		-72.265625
5801		-74.218750
5802		-70.312500
5803		-72.265625
5804		-68.359375
5805		-68.359375
5806		-66.406250
5807		-66.406250
5808		-62.500000
5809		-64.453125
5810		-60.546875
5811		-62.500000
5812		-58.593750
5813		-58.593750
5814		-54.687500
5815		-56.640625
5816		-50.781250
5817		-52.734375
5818		-48.828125
5819		-50.781250
5820		-44.921875
5821		-46.875000
5822		-42.968750
5823		-42.968750
5824		-39.062500
5825		-39.062500
5826		-35.156250
5827		-35.156250
5828		-31.250000
5829		-33.203125
5830		-27.343750
5831		-29.296875
5832		-23.437500
5833		-25.390625
5834		-19.531250
5835		-21.484375
5836		-15.625000
5837		-17.578125
5838		-11.718750
5839		-13.671875
5840		-7.812500
5841		-9.765625
5842		-3.906250
5843		-5.859375
5844		0.000000
5845		0.000000
5846		3.906250
5847		1.953125
5848		7.812500
5849		7.812500
5850		11.718750
5851		11.718750
5852		15.625000
5853		15.625000
5854		19.531250
5855		19.531250
5856		23.437500
5857		23.437500
5858		27.343750
5859		27.343750
5860		31.250000
5861		31.250000
5862		35.156250
5863		35.156250
5864		39.062500
5865		39.062500
5866		42.968750
5867		41.015625
5868		46.875000
5869		44.921875
5870		50.781250
5871		48.828125
5872		52.734375
5873		52.734375
5874		56.640625
5875		54.687500
5876		60.546875
5877		58.593750
5878		62.500000
5879		60.546875
5880		66.406250
5881		64.453125
5882		68.359375
5883		66.406250
5884		72.265625
5885		70.312500
5886		74.218750
5887		72.265625
5888		76.171875
5889		74.218750
5890		78.125000
5891		76.171875
5892		82.031250
5893		80.078125
5894		83.984375
5895		82.031250
5896		85.937500
5897		83.984375
5898		87.890625
5899		85.937500
5900		87.890625
5901		87.890625
5902		89.843750
5903		89.843750
5904		91.796875
5905		89.843750
5906		93.750000
5907		91.796875
5908		93.750000
5909		91.796875
5910		95.703125
5911		93.750000
5912		95.703125
5913		93.750000
5914		97.656250
5915		95.703125
5916		97.656250
5917		95.703125
5918		97.656250
5919		95.703125
5920		97.656250
5921		95.703125
5922		97.656250
5923		95.703125
5924		97.656250
5925		95.703125
5926		97.656250
5927		95.703125
5928		97.656250
5929		95.703125
5930		97.656250
5931		93.750000
5932		95.703125
5933		93.750000
5934		95.703125
5935		91.796875
5936		95.703125
5937		91.796875
5938		93.750000
5939		89.843750
5940		93.750000
5941		87.890625
5942		91.796875
5943		85.937500
5944		89.843750
5945		85.937500
5946		87.890625
5947		83.984375
5948		87.890625
5949		82.031250
5950		85.937500
5951		80.078125
5952		83.984375
5953		76.171875
5954		80.078125
5955		74.218750
5956		78.125000
5957		72.265625
5958		76.171875
5959		70.312500
5960		74.218750
5961		66.406250
5962		70.312500
5963		62.500000
5964		68.359375
5965		60.546875
5966		64.453125
5967		56.640625
5968		62.500000
5969		54.687500
5970		58.593750
5971		50.781250
5972		54.687500
5973		46.875000
5974		52.734375
5975		42.968750
5976		48.828125
5977		39.062500
5978		44.921875
5979		35.156250
5980		41.015625
5981		33.203125
5982		37.109375
5983		29.296875
5984		33.203125
5985		25.390625
5986		29.296875
5987		21.484375
5988		25.390625
5989		17.578125
5990		21.484375
5991		13.671875
5992		17.578125
5993		9.765625
5994		13.671875
5995		3.906250
5996		9.765625
5997		0.000000
5998		5.859375
5999		-3.906250
6000		1.953125
6001		-7.812500
6002		-1.953125
6003		-11.718750
6004		-5.859375
6005		-15.625000
6006		-9.765625
6007		-19.531250
6008		-13.671875
6009		-23.437500
6010		-17.578125
6011		-27.343750
6012		-21.484375
6013		-31.250000
6014		-25.390625
6015		-35.156250
6016		-29.296875
6017		-39.062500
6018		-33.203125
6019		-41.015625
6020		-37.109375
6021		-44.921875
6022		-41.015625
6023		-48.828125
6024		-42.968750
6025		-50.781250
6026		-46.875000
6027		-54.687500
6028		-50.781250
6029		-58.593750
6030		-52.734375
6031		-60.546875
6032		-56.640625
6033		-62.500000
6034		-58.593750
6035		-66.406250
6036		-62.500000
6037		-68.359375
6038		-64.453125
6039		-70.312500
6040		-66.406250
6041		-72.265625
6042		-68.359375
6043		-74.218750
6044		-70.312500
6045		-76.171875
6046		-72.265625
6047		-78.125000
6048		-74.218750
6049		-78.125000
6050		-76.171875
6051		-80.078125
6052		-76.171875
6053		-82.031250
6054		-78.125000
6055		-82.031250
6056		-80.078125
6057		-82.031250
6058		-80.078125
6059		-82.031250
6060		-80.078125
6061		-83.984375
6062		-80.078125
6063		-83.984375
6064		-80.078125
6065		-83.984375
6066		-80.078125
6067		-82.031250
6068		-80.078125
6069		-82.031250
6070		-80.078125
6071		-82.031250
6072		-78.125000
6073		-80.078125
6074		-78.125000
6075		-80.078125
6076		-76.171875
6077		-78.125000
6078		-76.171875
6079		-76.171875
6080		-74.218750
6081		-76.171875
6082		-72.265625
6083		-74.218750
6084		-70.312500
6085		-72.265625
6086		-68.359375
6087		-70.312500
6088		-66.406250
6089		-66.406250
6090		-64.453125
6091		-64.453125
6092		-60.546875
6093		-62.500000
6094		-58.593750
6095		-58.593750
6096		-54.687500
6097		-56.640625
6098		-52.734375
6099		-52.734375
6100		-48.828125
6101		-50.781250
6102		-44.921875
6103		-46.875000
6104		-42.968750
6105		-42.968750
6106		-39.062500
6107		-41.015625
6108		-35.156250
6109		-37.109375
6110		-31.250000
6111		-33.203125
6112		-27.343750
6113		-29.296875
6114		-23.437500
6115		-25.390625
6116		-19.531250
6117		-21.484375
6118		-15.625000
6119		-17.578125
6120		-11.718750
6121		-13.671875
6122		-7.812500
6123		-9.765625
6124		-3.906250
6125		-5.859375
6126		0.000000
6127		-1.953125
6128		3.906250
6129		1.953125
6130		7.812500
6131		5.859375
6132		11.718750
6133		9.765625
6134		15.625000
6135		13.671875
6136		19.531250
6137		17.578125
6138		23.437500
6139		23.437500
6140		27.343750
6141		25.390625
6142		31.250000
6143		29.296875
6144		35.156250
6145		33.203125
6146		39.062500
6147		37.109375
6148		42.968750
6149		41.015625
6150		46.875000
6151		44.921875
6152		50.781250
6153		48.828125
6154		52.734375
6155		50.781250
6156		56.640625
6157		54.687500
6158		60.546875
6159		58.593750
6160		62.500000
6161		60.546875
6162		66.406250
6163		64.453125
6164		68.359375
6165		66.406250
6166		72.265625
6167		70.312500
6168		74.218750
6169		72.265625
6170		76.171875
6171		74.218750
6172		80.078125
6173		76.171875
6174		82.031250
6175		78.125000
6176		83.984375
6177		82.031250
6178		85.937500
6179		83.984375
6180		87.890625
6181		85.937500
6182		87.890625
6183		87.890625
6184		89.843750
6185		87.890625
6186		91.796875
6187		89.843750
6188		95.703125
6189		89.843750
6190		93.750000
6191		91.796875
6192		95.703125
6193		91.796875
6194		97.656250
6195		91.796875
6196		99.609375
6197		95.703125
6198		97.656250
6199		95.703125
6200		97.656250
6201		95.703125
6202		99.609375
6203		95.703125
6204		97.656250
6205		93.750000
6206		99.609375
6207		93.750000
6208		99.609375
6209		93.750000
6210		99.609375
6211		93.750000
6212		97.656250
6213		91.796875
6214		99.609375
6215		93.750000
6216		97.656250
6217		91.796875
6218		95.703125
6219		89.843750
6220		95.703125
6221		87.890625
6222		93.750000
6223		87.890625
6224		91.796875
6225		85.937500
6226		89.843750
6227		83.984375
6228		91.796875
6229		83.984375
6230		87.890625
6231		82.031250
6232		85.937500
6233		80.078125
6234		83.984375
6235		76.171875
6236		82.031250
6237		74.218750
6238		82.031250
6239		70.312500
6240		78.125000
6241		70.312500
6242		74.218750
6243		66.406250
6244		72.265625
6245		64.453125
6246		68.359375
6247		60.546875
6248		68.359375
6249		58.593750
6250		62.500000
6251		52.734375
6252		58.593750
6253		48.828125
6254		56.640625
6255		46.875000
6256		52.734375
6257		42.968750
6258		48.828125
6259		37.109375
6260		44.921875
6261		37.109375
6262		44.921875
6263		31.250000
6264		39.062500
6265		29.296875
6266		35.156250
6267		25.390625
6268		31.250000
6269		19.531250
6270		27.343750
6271		15.625000
6272		25.390625
6273		13.671875
6274		19.531250
6275		7.812500
6276		15.625000
6277		3.906250
6278		11.718750
6279		-1.953125
6280		5.859375
6281		-1.953125
6282		1.953125
6283		-5.859375
6284		-1.953125
6285		-11.718750
6286		-5.859375
6287		-17.578125
6288		-7.812500
6289		-19.531250
6290		-13.671875
6291		-23.437500
6292		-17.578125
6293		-29.296875
6294		-21.484375
6295		-29.296875
6296		-23.437500
6297		-35.156250
6298		-27.343750
6299		-37.109375
6300		-33.203125
6301		-42.968750
6302		-35.156250
6303		-48.828125
6304		-39.062500
6305		-50.781250
6306		-41.015625
6307		-50.781250
6308		-46.875000
6309		-54.687500
6310		-50.781250
6311		-60.546875
6312		-48.828125
6313		-64.453125
6314		-54.687500
6315		-62.500000
6316		-58.593750
6317		-66.406250
6318		-62.500000
6319		-68.359375
6320		-64.453125
6321		-72.265625
6322		-64.453125
6323		-74.218750
6324		-66.406250
6325		-74.218750
6326		-70.312500
6327		-80.078125
6328		-70.312500
6329		-80.078125
6330		-70.312500
6331		-82.031250
6332		-72.265625
6333		-80.078125
6334		-76.171875
6335		-82.031250
6336		-78.125000
6337		-85.937500
6338		-76.171875
6339		-83.984375
6340		-78.125000
6341		-83.984375
6342		-80.078125
6343		-83.984375
6344		-80.078125
6345		-85.937500
6346		-78.125000
6347		-87.890625
6348		-78.125000
6349		-82.031250
6350		-80.078125
6351		-82.031250
6352		-80.078125
6353		-82.031250
6354		-78.125000
6355		-83.984375
6356		-76.171875
6357		-80.078125
6358		-76.171875
6359		-78.125000
6360		-74.218750
6361		-80.078125
6362		-70.312500
6363		-76.171875
6364		-70.312500
6365		-74.218750
6366		-70.312500
6367		-72.265625
6368		-68.359375
6369		-70.312500
6370		-64.453125
6371		-68.359375
6372		-60.546875
6373		-66.406250
6374		-60.546875
6375		-62.500000
6376		-58.593750
6377		-60.546875
6378		-52.734375
6379		-60.546875
6380		-50.781250
6381		-54.687500
6382		-48.828125
6383		-50.781250
6384		-46.875000
6385		-46.875000
6386		-42.968750
6387		-44.921875
6388		-37.109375
6389		-42.968750
6390		-35.156250
6391		-37.109375
6392		-31.250000
6393		-33.203125
6394		-27.343750
6395		-33.203125
6396		-21.484375
6397		-25.390625
6398		-17.578125
6399		-21.484375
6400		-15.625000
6401		-17.578125
6402		-11.718750
6403		-13.671875
6404		-7.812500
6405		-11.718750
6406		-3.906250
6407		-7.812500
6408		0.000000
6409		-1.953125
6410		3.906250
6411		0.000000
6412		9.765625
6413		1.953125
6414		11.718750
6415		7.812500
6416		15.625000
6417		11.718750
6418		19.531250
6419		17.578125
6420		23.437500
6421		21.484375
6422		31.250000
6423		25.390625
6424		31.250000
6425		29.296875
6426		35.156250
6427		33.203125
6428		39.062500
6429		33.203125
6430		42.968750
6431		41.015625
6432		46.875000
6433		44.921875
6434		48.828125
6435		48.828125
6436		52.734375
6437		50.781250
6438		56.640625
6439		52.734375
6440		60.546875
6441		56.640625
6442		62.500000
6443		60.546875
6444		64.453125
6445		62.500000
6446		68.359375
6447		66.406250
6448		74.218750
6449		68.359375
6450		74.218750
6451		72.265625
6452		76.171875
6453		74.218750
6454		78.125000
6455		74.218750
6456		82.031250
6457		78.125000
6458		83.984375
6459		82.031250
6460		83.984375
6461		82.031250
6462		87.890625
6463		85.937500
6464		87.890625
6465		85.937500
6466		89.843750
6467		87.890625
6468		91.796875
6469		89.843750
6470		93.750000
6471		91.796875
6472		93.750000
6473		91.796875
6474		97.656250
6475		91.796875
6476		95.703125
6477		93.750000
6478		97.656250
6479		93.750000
6480		99.609375
6481		93.750000
6482		97.656250
6483		95.703125
6484		97.656250
6485		95.703125
6486		97.656250
6487		95.703125
6488		97.656250
6489		95.703125
6490		97.656250
6491		95.703125
6492		97.656250
6493		95.703125
6494		97.656250
6495		93.750000
6496		97.656250
6497		93.750000
6498		95.703125
6499		93.750000
6500		95.703125
6501		91.796875
6502		93.750000
6503		89.843750
6504		93.750000
6505		89.843750
6506		91.796875
6507		87.890625
6508		91.796875
6509		83.984375
6510		89.843750
6511		83.984375
6512		87.890625
6513		82.031250
6514		85.937500
6515		80.078125
6516		83.984375
6517		78.125000
6518		82.031250
6519		76.171875
6520		80.078125
6521		72.265625
6522		78.125000
6523		68.359375
6524		74.218750
6525		66.406250
6526		72.265625
6527		62.500000
6528		70.312500
6529		60.546875
6530		66.406250
6531		56.640625
6532		64.453125
6533		54.687500
6534		60.546875
6535		52.734375
6536		56.640625
6537		46.875000
6538		52.734375
6539		44.921875
6540		50.781250
6541		41.015625
6542		46.875000
6543		37.109375
6544		42.968750
6545		33.203125
6546		39.062500
6547		29.296875
6548		37.109375
6549		25.390625
6550		33.203125
6551		21.484375
6552		27.343750
6553		17.578125
6554		23.437500
6555		13.671875
6556		21.484375
6557		9.765625
6558		17.578125
6559		3.906250
6560		11.718750
6561		1.953125
6562		9.765625
6563		-3.906250
6564		3.906250
6565		-7.812500
6566		0.000000
6567		-9.765625
6568		-3.906250
6569		-13.671875
6570		-7.812500
6571		-19.531250
6572		-13.671875
6573		-23.437500
6574		-15.625000
6575		-27.343750
6576		-19.531250
6577		-29.296875
6578		-23.437500
6579		-33.203125
6580		-27.343750
6581		-37.109375
6582		-31.250000
6583		-41.015625
6584		-35.156250
6585		-44.921875
6586		-39.062500
6587		-48.828125
6588		-42.968750
6589		-50.781250
6590		-44.921875
6591		-54.687500
6592		-48.828125
6593		-58.593750
6594		-50.781250
6595		-60.546875
6596		-54.687500
6597		-62.500000
6598		-58.593750
6599		-66.406250
6600		-60.546875
6601		-66.406250
6602		-64.453125
6603		-70.312500
6604		-66.406250
6605		-72.265625
6606		-66.406250
6607		-74.218750
6608		-70.312500
6609		-76.171875
6610		-70.312500
6611		-78.125000
6612		-72.265625
6613		-80.078125
6614		-74.218750
6615		-80.078125
6616		-76.171875
6617		-82.031250
6618		-76.171875
6619		-82.031250
6620		-78.125000
6621		-82.031250
6622		-80.078125
6623		-83.984375
6624		-80.078125
6625		-83.984375
6626		-80.078125
6627		-85.937500
6628		-78.125000
6629		-83.984375
6630		-80.078125
6631		-83.984375
6632		-80.078125
6633		-82.031250
6634		-80.078125
6635		-82.031250
6636		-80.078125
6637		-80.078125
6638		-78.125000
6639		-80.078125
6640		-76.171875
6641		-78.125000
6642		-76.171875
6643		-78.125000
6644		-72.265625
6645		-78.125000
6646		-72.265625
6647		-74.218750
6648		-70.312500
6649		-72.265625
6650		-68.359375
6651		-70.312500
6652		-66.406250
6653		-68.359375
6654		-64.453125
6655		-66.406250
6656		-60.546875
6657		-62.500000
6658		-58.593750
6659		-60.546875
6660		-56.640625
6661		-58.593750
6662		-52.734375
6663		-54.687500
6664		-48.828125
6665		-50.781250
6666		-46.875000
6667		-48.828125
6668		-42.968750
6669		-44.921875
6670		-39.062500
6671		-41.015625
6672		-35.156250
6673		-37.109375
6674		-31.250000
6675		-33.203125
6676		-29.296875
6677		-29.296875
6678		-23.437500
6679		-25.390625
6680		-19.531250
6681		-23.437500
6682		-17.578125
6683		-19.531250
6684		-11.718750
6685		-13.671875
6686		-9.765625
6687		-11.718750
6688		-5.859375
6689		-5.859375
6690		-1.953125
6691		-1.953125
6692		1.953125
6693		0.000000
6694		7.812500
6695		3.906250
6696		11.718750
6697		9.765625
6698		15.625000
6699		13.671875
6700		19.531250
6701		17.578125
6702		23.437500
6703		21.484375
6704		27.343750
6705		25.390625
6706		31.250000
6707		29.296875
6708		35.156250
6709		33.203125
6710		37.109375
6711		37.109375
6712		41.015625
6713		39.062500
6714		44.921875
6715		44.921875
6716		48.828125
6717		46.875000
6718		52.734375
6719		50.781250
6720		54.687500
6721		54.687500
6722		58.593750
6723		56.640625
6724		62.500000
6725		60.546875
6726		64.453125
6727		62.500000
6728		68.359375
6729		64.453125
6730		70.312500
6731		68.359375
6732		74.218750
6733		72.265625
6734		76.171875
6735		72.265625
6736		78.125000
6737		76.171875
6738		80.078125
6739		78.125000
6740		83.984375
6741		80.078125
6742		85.937500
6743		82.031250
6744		85.937500
6745		83.984375
6746		89.843750
6747		85.937500
6748		89.843750
6749		87.890625
6750		91.796875
6751		89.843750
6752		93.750000
6753		91.796875
6754		93.750000
6755		91.796875
6756		95.703125
6757		93.750000
6758		95.703125
6759		93.750000
6760		97.656250
6761		93.750000
6762		97.656250
6763		95.703125
6764		97.656250
6765		95.703125
6766		99.609375
6767		95.703125
6768		99.609375
6769		95.703125
6770		97.656250
6771		95.703125
6772		97.656250
6773		95.703125
6774		97.656250
6775		95.703125
6776		97.656250
6777		93.750000
6778		97.656250
6779		93.750000
6780		95.703125
6781		91.796875
6782		95.703125
6783		91.796875
6784		95.703125
6785		89.843750
6786		95.703125
6787		89.843750
6788		91.796875
6789		87.890625
6790		91.796875
6791		85.937500
6792		89.843750
6793		83.984375
6794		87.890625
6795		82.031250
6796		85.937500
6797		80.078125
6798		83.984375
6799		78.125000
6800		82.031250
6801		74.218750
6802		80.078125
6803		72.265625
6804		78.125000
6805		70.312500
6806		74.218750
6807		68.359375
6808		72.265625
6809		64.453125
6810		68.359375
6811		62.500000
6812		66.406250
6813		58.593750
6814		62.500000
6815		54.687500
6816		60.546875
6817		52.734375
6818		56.640625
6819		48.828125
6820		54.687500
6821		44.921875
6822		50.781250
6823		41.015625
6824		46.875000
6825		37.109375
6826		42.968750
6827		35.156250
6828		39.062500
6829		31.250000
6830		35.156250
6831		27.343750
6832		31.250000
6833		21.484375
6834		29.296875
6835		17.578125
6836		23.437500
6837		13.671875
6838		19.531250
6839		9.765625
6840		15.625000
6841		5.859375
6842		11.718750
6843		1.953125
6844		7.812500
6845		-1.953125
6846		3.906250
6847		-5.859375
6848		0.000000
6849		-9.765625
6850		-3.906250
6851		-13.671875
6852		-7.812500
6853		-17.578125
6854		-11.718750
6855		-21.484375
6856		-15.625000
6857		-25.390625
6858		-19.531250
6859		-29.296875
6860		-23.437500
6861		-33.203125
6862		-27.343750
6863		-37.109375
6864		-31.250000
6865		-41.015625
6866		-35.156250
6867		-44.921875
6868		-39.062500
6869		-46.875000
6870		-41.015625
6871		-50.781250
6872		-46.875000
6873		-54.687500
6874		-48.828125
6875		-56.640625
6876		-52.734375
6877		-60.546875
6878		-54.687500
6879		-62.500000
6880		-58.593750
6881		-64.453125
6882		-60.546875
6883		-68.359375
6884		-62.500000
6885		-70.312500
6886		-66.406250
6887		-72.265625
6888		-68.359375
6889		-74.218750
6890		-70.312500
6891		-76.171875
6892		-72.265625
6893		-78.125000
6894		-74.218750
6895		-80.078125
6896		-76.171875
6897		-80.078125
6898		-78.125000
6899		-82.031250
6900		-78.125000
6901		-82.031250
6902		-80.078125
6903		-83.984375
6904		-78.125000
6905		-83.984375
6906		-80.078125
6907		-83.984375
6908		-82.031250
6909		-83.984375
6910		-80.078125
6911		-83.984375
6912		-80.078125
6913		-83.984375
6914		-80.078125
6915		-83.984375
6916		-80.078125
6917		-82.031250
6918		-80.078125
6919		-82.031250
6920		-78.125000
6921		-80.078125
6922		-78.125000
6923		-80.078125
6924		-76.171875
6925		-78.125000
6926		-74.218750
6927		-76.171875
6928		-74.218750
6929		-74.218750
6930		-72.265625
6931		-72.265625
6932		-70.312500
6933		-72.265625
6934		-68.359375
6935		-68.359375
6936		-64.453125
6937		-66.406250
6938		-62.500000
6939		-64.453125
6940		-60.546875
6941		-60.546875
6942		-56.640625
6943		-58.593750
6944		-54.687500
6945		-54.687500
6946		-50.781250
6947		-52.734375
6948		-46.875000
6949		-50.781250
6950		-44.921875
6951		-44.921875
6952		-41.015625
6953		-42.968750
6954		-37.109375
6955		-39.062500
6956		-33.203125
6957		-35.156250
6958		-29.296875
6959		-31.250000
6960		-25.390625
6961		-27.343750
6962		-21.484375
6963		-23.437500
6964		-17.578125
6965		-19.531250
6966		-13.671875
6967		-15.625000
6968		-9.765625
6969		-11.718750
6970		-5.859375
6971		-7.812500
6972		-1.953125
6973		-3.906250
6974		1.953125
6975		0.000000
6976		5.859375
6977		3.906250
6978		9.765625
6979		7.812500
6980		13.671875
6981		11.718750
6982		17.578125
6983		15.625000
6984		21.484375
6985		19.531250
6986		25.390625
6987		23.437500
6988		29.296875
6989		27.343750
6990		33.203125
6991		31.250000
6992		37.109375
6993		35.156250
6994		41.015625
6995		39.062500
6996		44.921875
6997		42.968750
6998		46.875000
6999		46.875000
7000		50.781250
7001		48.828125
7002		54.687500
7003		52.734375
7004		58.593750
7005		56.640625
7006		60.546875
7007		58.593750
7008		64.453125
7009		62.500000
7010		66.406250
7011		66.406250
7012		70.312500
7013		68.359375
7014		72.265625
7015		70.312500
7016		74.218750
7017		72.265625
7018		78.125000
7019		76.171875
7020		80.078125
7021		78.125000
7022		82.031250
7023		80.078125
7024		83.984375
7025		82.031250
7026		85.937500
7027		83.984375
7028		87.890625
7029		85.937500
7030		89.843750
7031		87.890625
7032		91.796875
7033		87.890625
7034		91.796875
7035		89.843750
7036		93.750000
7037		89.843750
7038		93.750000
7039		91.796875
7040		95.703125
7041		93.750000
7042		97.656250
7043		93.750000
7044		97.656250
7045		93.750000
7046		97.656250
7047		95.703125
7048		97.656250
7049		95.703125
7050		97.656250
7051		95.703125
7052		97.656250
7053		95.703125
7054		99.609375
7055		95.703125
7056		97.656250
7057		95.703125
7058		97.656250
7059		93.750000
7060		97.656250
7061		93.750000
7062		95.703125
7063		91.796875
7064		95.703125
7065		91.796875
7066		93.750000
7067		89.843750
7068		93.750000
7069		87.890625
7070		93.750000
7071		87.890625
7072		91.796875
7073		85.937500
7074		89.843750
7075		83.984375
7076		87.890625
7077		82.031250
7078		85.937500
7079		80.078125
7080		83.984375
7081		78.125000
7082		82.031250
7083		76.171875
7084		80.078125
7085		72.265625
7086		78.125000
7087		70.312500
7088		74.218750
7089		68.359375
7090		72.265625
7091		64.453125
7092		70.312500
7093		62.500000
7094		66.406250
7095		58.593750
7096		64.453125
7097		56.640625
7098		60.546875
7099		52.734375
7100		56.640625
7101		48.828125
7102		54.687500
7103		42.968750
7104		50.781250
7105		41.015625
7106		46.875000
7107		39.062500
7108		42.968750
7109		35.156250
7110		39.062500
7111		31.250000
7112		37.109375
7113		25.390625
7114		31.250000
7115		23.437500
7116		27.343750
7117		17.578125
7118		23.437500
7119		15.625000
7120		19.531250
7121		9.765625
7122		15.625000
7123		5.859375
7124		11.718750
7125		1.953125
7126		7.812500
7127		-1.953125
7128		3.906250
7129		-5.859375
7130		0.000000
7131		-9.765625
7132		-3.906250
7133		-13.671875
7134		-7.812500
7135		-17.578125
7136		-11.718750
7137		-21.484375
7138		-15.625000
7139		-25.390625
7140		-19.531250
7141		-29.296875
7142		-23.437500
7143		-33.203125
7144		-27.343750
7145		-37.109375
7146		-31.250000
7147		-41.015625
7148		-33.203125
7149		-44.921875
7150		-39.062500
7151		-46.875000
7152		-42.968750
7153		-50.781250
7154		-44.921875
7155		-54.687500
7156		-48.828125
7157		-56.640625
7158		-52.734375
7159		-60.546875
7160		-54.687500
7161		-62.500000
7162		-58.593750
7163		-66.406250
7164		-60.546875
7165		-68.359375
7166		-64.453125
7167		-70.312500
7168		-66.406250
7169		-72.265625
7170		-68.359375
7171		-74.218750
7172		-70.312500
7173		-76.171875
7174		-72.265625
7175		-78.125000
7176		-74.218750
7177		-80.078125
7178		-74.218750
7179		-80.078125
7180		-76.171875
7181		-82.031250
7182		-78.125000
7183		-82.031250
7184		-80.078125
7185		-83.984375
7186		-80.078125
7187		-83.984375
7188		-80.078125
7189		-83.984375
7190		-82.031250
7191		-83.984375
7192		-82.031250
7193		-83.984375
7194		-82.031250
7195		-83.984375
7196		-82.031250
7197		-83.984375
7198		-80.078125
7199		-83.984375
7200		-80.078125
7201		-82.031250
7202		-78.125000
7203		-82.031250
7204		-78.125000
7205		-80.078125
7206		-76.171875
7207		-78.125000
7208		-76.171875
7209		-76.171875
7210		-72.265625
7211		-76.171875
7212		-72.265625
7213		-74.218750
7214		-70.312500
7215		-72.265625
7216		-68.359375
7217		-70.312500
7218		-64.453125
7219		-66.406250
7220		-62.500000
7221		-64.453125
7222		-60.546875
7223		-62.500000
7224		-58.593750
7225		-58.593750
7226		-54.687500
7227		-56.640625
7228		-50.781250
7229		-52.734375
7230		-48.828125
7231		-50.781250
7232		-44.921875
7233		-46.875000
7234		-41.015625
7235		-42.968750
7236		-37.109375
7237		-39.062500
7238		-35.156250
7239		-37.109375
7240		-31.250000
7241		-33.203125
7242		-27.343750
7243		-29.296875
7244		-23.437500
7245		-25.390625
7246		-19.531250
7247		-21.484375
7248		-15.625000
7249		-17.578125
7250		-11.718750
7251		-13.671875
7252		-7.812500
7253		-7.812500
7254		-1.953125
7255		-5.859375
7256		0.000000
7257		0.000000
7258		3.906250
7259		1.953125
7260		7.812500
7261		5.859375
7262		11.718750
7263		9.765625
7264		17.578125
7265		15.625000
7266		21.484375
7267		19.531250
7268		23.437500
7269		23.437500
7270		29.296875
7271		27.343750
7272		33.203125
7273		31.250000
7274		35.156250
7275		35.156250
7276		39.062500
7277		39.062500
7278		42.968750
7279		41.015625
7280		46.875000
7281		44.921875
7282		50.781250
7283		48.828125
7284		52.734375
7285		52.734375
7286		56.640625
7287		54.687500
7288		60.546875
7289		58.593750
7290		62.500000
7291		62.500000
7292		66.406250
7293		64.453125
7294		68.359375
7295		66.406250
7296		72.265625
7297		70.312500
7298		74.218750
7299		72.265625
7300		76.171875
7301		74.218750
7302		80.078125
7303		76.171875
7304		82.031250
7305		80.078125
7306		83.984375
7307		82.031250
7308		85.937500
7309		83.984375
7310		87.890625
7311		85.937500
7312		89.843750
7313		87.890625
7314		89.843750
7315		87.890625
7316		91.796875
7317		89.843750
7318		93.750000
7319		89.843750
7320		95.703125
7321		91.796875
7322		95.703125
7323		93.750000
7324		95.703125
7325		93.750000
7326		95.703125
7327		93.750000
7328		97.656250
7329		93.750000
7330		97.656250
7331		95.703125
7332		97.656250
7333		95.703125
7334		97.656250
7335		93.750000
7336		97.656250
7337		93.750000
7338		99.609375
7339		95.703125
7340		97.656250
7341		93.750000
7342		95.703125
7343		93.750000
7344		95.703125
7345		91.796875
7346		95.703125
7347		89.843750
7348		95.703125
7349		89.843750
7350		93.750000
7351		87.890625
7352		91.796875
7353		87.890625
7354		91.796875
7355		85.937500
7356		89.843750
7357		83.984375
7358		87.890625
7359		82.031250
7360		85.937500
7361		80.078125
7362		83.984375
7363		78.125000
7364		82.031250
7365		76.171875
7366		80.078125
7367		72.265625
7368		76.171875
7369		70.312500
7370		74.218750
7371		68.359375
7372		72.265625
7373		64.453125
7374		68.359375
7375		62.500000
7376		66.406250
7377		58.593750
7378		62.500000
7379		54.687500
7380		60.546875
7381		52.734375
7382		56.640625
7383		48.828125
7384		54.687500
7385		44.921875
7386		50.781250
7387		41.015625
7388		46.875000
7389		37.109375
7390		42.968750
7391		35.156250
7392		39.062500
7393		31.250000
7394		35.156250
7395		27.343750
7396		33.203125
7397		23.437500
7398		27.343750
7399		17.578125
7400		23.437500
7401		15.625000
7402		19.531250
7403		11.718750
7404		17.578125
7405		5.859375
7406		11.718750
7407		1.953125
7408		9.765625
7409		0.000000
7410		3.906250
7411		-5.859375
7412		0.000000
7413		-9.765625
7414		-3.906250
7415		-13.671875
7416		-7.812500
7417		-17.578125
7418		-11.718750
7419		-21.484375
7420		-15.625000
7421		-25.390625
7422		-19.531250
7423		-29.296875
7424		-23.437500
7425		-33.203125
7426		-27.343750
7427		-37.109375
7428		-31.250000
7429		-39.062500
7430		-33.203125
7431		-42.968750
7432		-39.062500
7433		-46.875000
7434		-42.968750
7435		-50.781250
7436		-44.921875
7437		-52.734375
7438		-48.828125
7439		-56.640625
7440		-52.734375
7441		-58.593750
7442		-54.687500
7443		-62.500000
7444		-56.640625
7445		-64.453125
7446		-60.546875
7447		-68.359375
7448		-62.500000
7449		-70.312500
7450		-66.406250
7451		-72.265625
7452		-68.359375
7453		-74.218750
7454		-70.312500
7455		-76.171875
7456		-72.265625
7457		-78.125000
7458		-74.218750
7459		-80.078125
7460		-76.171875
7461		-80.078125
7462		-78.125000
7463		-82.031250
7464		-78.125000
7465		-82.031250
7466		-80.078125
7467		-83.984375
7468		-80.078125
7469		-83.984375
7470		-80.078125
7471		-83.984375
7472		-82.031250
7473		-83.984375
7474		-80.078125
7475		-83.984375
7476		-82.031250
7477		-83.984375
7478		-82.031250
7479		-83.984375
7480		-80.078125
7481		-83.984375
7482		-80.078125
7483		-82.031250
7484		-78.125000
7485		-82.031250
7486		-78.125000
7487		-80.078125
7488		-76.171875
7489		-78.125000
7490		-76.171875
7491		-78.125000
7492		-74.218750
7493		-76.171875
7494		-72.265625
7495		-74.218750
7496		-70.312500
7497		-72.265625
7498		-68.359375
7499		-70.312500
7500		-66.406250
7501		-66.406250
7502		-64.453125
7503		-66.406250
7504		-60.546875
7505		-62.500000
7506		-56.640625
7507		-58.593750
7508		-54.687500
7509		-56.640625
7510		-50.781250
7511		-52.734375
7512		-48.828125
7513		-50.781250
7514		-44.921875
7515		-46.875000
7516		-41.015625
7517		-42.968750
7518		-39.062500
7519		-39.062500
7520		-35.156250
7521		-37.109375
7522		-31.250000
7523		-33.203125
7524		-27.343750
7525		-29.296875
7526		-23.437500
7527		-25.390625
7528		-19.531250
7529		-21.484375
7530		-15.625000
7531		-17.578125
7532		-11.718750
7533		-13.671875
7534		-7.812500
7535		-9.765625
7536		-3.906250
7537		-5.859375
7538		0.000000
7539		-1.953125
7540		3.906250
7541		3.906250
7542		7.812500
7543		7.812500
7544		11.718750
7545		11.718750
7546		17.578125
7547		15.625000
7548		21.484375
7549		19.531250
7550		23.437500
7551		23.437500
7552		27.343750
7553		27.343750
7554		31.250000
7555		29.296875
7556		35.156250
7557		35.156250
7558		39.062500
7559		39.062500
7560		42.968750
7561		41.015625
7562		46.875000
7563		44.921875
7564		50.781250
7565		48.828125
7566		54.687500
7567		52.734375
7568		58.593750
7569		54.687500
7570		60.546875
7571		58.593750
7572		64.453125
7573		62.500000
7574		66.406250
7575		64.453125
7576		68.359375
7577		68.359375
7578		72.265625
7579		70.312500
7580		76.171875
7581		72.265625
7582		76.171875
7583		74.218750
7584		80.078125
7585		78.125000
7586		82.031250
7587		78.125000
7588		83.984375
7589		82.031250
7590		85.937500
7591		83.984375
7592		87.890625
7593		85.937500
7594		89.843750
7595		87.890625
7596		89.843750
7597		87.890625
7598		91.796875
7599		89.843750
7600		93.750000
7601		91.796875
7602		93.750000
7603		91.796875
7604		95.703125
7605		93.750000
7606		95.703125
7607		93.750000
7608		97.656250
7609		93.750000
7610		97.656250
7611		95.703125
7612		97.656250
7613		93.750000
7614		99.609375
7615		95.703125
7616		97.656250
7617		95.703125
7618		97.656250
7619		95.703125
7620		99.609375
7621		93.750000
7622		97.656250
7623		93.750000
7624		97.656250
7625		93.750000
7626		97.656250
7627		93.750000
7628		95.703125
7629		91.796875
7630		95.703125
7631		89.843750
7632		93.750000
7633		89.843750
7634		93.750000
7635		87.890625
7636		91.796875
7637		85.937500
7638		89.843750
7639		83.984375
7640		89.843750
7641		82.031250
7642		87.890625
7643		80.078125
7644		83.984375
7645		78.125000
7646		82.031250
7647		76.171875
7648		80.078125
7649		74.218750
7650		78.125000
7651		70.312500
7652		76.171875
7653		68.359375
7654		72.265625
7655		66.406250
7656		70.312500
7657		62.500000
7658		66.406250
7659		58.593750
7660		64.453125
7661		56.640625
7662		62.500000
7663		52.734375
7664		58.593750
7665		50.781250
7666		56.640625
7667		46.875000
7668		52.734375
7669		42.968750
7670		48.828125
7671		39.062500
7672		44.921875
7673		35.156250
7674		41.015625
7675		31.250000
7676		37.109375
7677		29.296875
7678		33.203125
7679		23.437500
7680		29.296875
7681		19.531250
7682		25.390625
7683		15.625000
7684		21.484375
7685		11.718750
7686		17.578125
7687		7.812500
7688		13.671875
7689		3.906250
7690		9.765625
7691		0.000000
7692		5.859375
7693		-3.906250
7694		1.953125
7695		-7.812500
7696		-1.953125
7697		-11.718750
7698		-5.859375
7699		-15.625000
7700		-9.765625
7701		-19.531250
7702		-13.671875
7703		-23.437500
7704		-17.578125
7705		-27.343750
7706		-21.484375
7707		-31.250000
7708		-25.390625
7709		-35.156250
7710		-29.296875
7711		-39.062500
7712		-33.203125
7713		-42.968750
7714		-37.109375
7715		-44.921875
7716		-41.015625
7717		-48.828125
7718		-42.968750
7719		-52.734375
7720		-46.875000
7721		-54.687500
7722		-50.781250
7723		-58.593750
7724		-52.734375
7725		-62.500000
7726		-56.640625
7727		-64.453125
7728		-58.593750
7729		-66.406250
7730		-62.500000
7731		-68.359375
7732		-64.453125
7733		-70.312500
7734		-66.406250
7735		-74.218750
7736		-68.359375
7737		-74.218750
7738		-70.312500
7739		-76.171875
7740		-72.265625
7741		-78.125000
7742		-74.218750
7743		-80.078125
7744		-76.171875
7745		-80.078125
7746		-78.125000
7747		-82.031250
7748		-78.125000
7749		-82.031250
7750		-78.125000
7751		-82.031250
7752		-80.078125
7753		-83.984375
7754		-80.078125
7755		-83.984375
7756		-80.078125
7757		-83.984375
7758		-80.078125
7759		-83.984375
7760		-80.078125
7761		-82.031250
7762		-80.078125
7763		-82.031250
7764		-80.078125
7765		-82.031250
7766		-78.125000
7767		-82.031250
7768		-78.125000
7769		-80.078125
7770		-76.171875
7771		-78.125000
7772		-74.218750
7773		-76.171875
7774		-74.218750
7775		-74.218750
7776		-70.312500
7777		-74.218750
7778		-70.312500
7779		-70.312500
7780		-68.359375
7781		-68.359375
7782		-64.453125
7783		-66.406250
7784		-62.500000
7785		-64.453125
7786		-60.546875
7787		-60.546875
7788		-56.640625
7789		-58.593750
7790		-54.687500
7791		-56.640625
7792		-50.781250
7793		-52.734375
7794		-48.828125
7795		-48.828125
7796		-44.921875
7797		-46.875000
7798		-41.015625
7799		-42.968750
7800		-37.109375
7801		-39.062500
7802		-33.203125
7803		-35.156250
7804		-31.250000
7805		-33.203125
7806		-27.343750
7807		-27.343750
7808		-23.437500
7809		-25.390625
7810		-17.578125
7811		-19.531250
7812		-15.625000
7813		-17.578125
7814		-11.718750
7815		-11.718750
7816		-7.812500
7817		-9.765625
7818		-3.906250
7819		-3.906250
7820		0.000000
7821		-1.953125
7822		3.906250
7823		1.953125
7824		9.765625
7825		7.812500
7826		13.671875
7827		9.765625
7828		15.625000
7829		15.625000
7830		19.531250
7831		19.531250
7832		25.390625
7833		21.484375
7834		27.343750
7835		27.343750
7836		33.203125
7837		31.250000
7838		37.109375
7839		35.156250
7840		41.015625
7841		37.109375
7842		42.968750
7843		42.968750
7844		46.875000
7845		44.921875
7846		50.781250
7847		48.828125
7848		54.687500
7849		52.734375
7850		56.640625
7851		54.687500
7852		60.546875
7853		58.593750
7854		62.500000
7855		62.500000
7856		66.406250
7857		64.453125
7858		70.312500
7859		66.406250
7860		72.265625
7861		68.359375
7862		74.218750
7863		72.265625
7864		76.171875
7865		76.171875
7866		80.078125
7867		78.125000
7868		82.031250
7869		80.078125
7870		83.984375
7871		82.031250
7872		85.937500
7873		83.984375
7874		87.890625
7875		85.937500
7876		89.843750
7877		87.890625
7878		89.843750
7879		89.843750
7880		91.796875
7881		89.843750
7882		93.750000
7883		89.843750
7884		95.703125
7885		91.796875
7886		95.703125
7887		93.750000
7888		97.656250
7889		93.750000
7890		97.656250
7891		95.703125
7892		97.656250
7893		95.703125
7894		99.609375
7895		95.703125
7896		99.609375
7897		95.703125
7898		97.656250
7899		93.750000
7900		99.609375
7901		95.703125
7902		99.609375
7903		95.703125
7904		99.609375
7905		95.703125
7906		97.656250
7907		93.750000
7908		97.656250
7909		93.750000
7910		95.703125
7911		91.796875
7912		95.703125
7913		91.796875
7914		93.750000
7915		89.843750
7916		93.750000
7917		87.890625
7918		91.796875
7919		87.890625
7920		91.796875
7921		85.937500
7922		89.843750
7923		83.984375
7924		87.890625
7925		82.031250
7926		85.937500
7927		78.125000
7928		83.984375
7929		78.125000
7930		82.031250
7931		74.218750
7932		78.125000
7933		72.265625
7934		76.171875
7935		70.312500
7936		74.218750
7937		66.406250
7938		72.265625
7939		64.453125
7940		68.359375
7941		60.546875
7942		66.406250
7943		56.640625
7944		62.500000
7945		54.687500
7946		60.546875
7947		50.781250
7948		56.640625
7949		46.875000
7950		52.734375
7951		44.921875
7952		48.828125
7953		41.015625
7954		46.875000
7955		37.109375
7956		41.015625
7957		33.203125
7958		39.062500
7959		29.296875
7960		35.156250
7961		25.390625
7962		31.250000
7963		21.484375
7964		27.343750
7965		17.578125
7966		23.437500
7967		13.671875
7968		19.531250
7969		9.765625
7970		15.625000
7971		5.859375
7972		11.718750
7973		1.953125
7974		5.859375
7975		-1.953125
7976		1.953125
7977		-5.859375
7978		0.000000
7979		-11.718750
7980		-3.906250
7981		-15.625000
7982		-9.765625
7983		-19.531250
7984		-13.671875
7985		-23.437500
7986		-17.578125
7987		-27.343750
7988		-21.484375
7989		-31.250000
7990		-25.390625
7991		-33.203125
7992		-29.296875
7993		-37.109375
7994		-31.250000
7995		-41.015625
7996		-35.156250
7997		-44.921875
7998		-39.062500
7999		-48.828125
8000		-42.968750
8001		-50.781250
8002		-44.921875
8003		-54.687500
8004		-50.781250
8005		-56.640625
8006		-52.734375
8007		-60.546875
8008		-54.687500
8009		-62.500000
8010		-58.593750
8011		-66.406250
8012		-60.546875
8013		-68.359375
8014		-64.453125
8015		-70.312500
8016		-66.406250
8017		-72.265625
8018		-68.359375
8019		-74.218750
8020		-70.312500
8021		-76.171875
8022		-72.265625
8023		-78.125000
8024		-74.218750
8025		-78.125000
8026		-74.218750
8027		-80.078125
8028		-76.171875
8029		-80.078125
8030		-76.171875
8031		-82.031250
8032		-78.125000
8033		-83.984375
8034		-78.125000
8035		-82.031250
8036		-80.078125
8037		-83.984375
8038		-80.078125
8039		-83.984375
8040		-80.078125
8041		-83.984375
8042		-80.078125
8043		-82.031250
8044		-80.078125
8045		-83.984375
8046		-78.125000
8047		-82.031250
8048		-78.125000
8049		-80.078125
8050		-78.125000
8051		-80.078125
8052		-76.171875
8053		-78.125000
8054		-74.218750
8055		-76.171875
8056		-74.218750
8057		-76.171875
8058		-72.265625
8059		-74.218750
8060		-70.312500
8061		-72.265625
8062		-66.406250
8063		-70.312500
8064		-64.453125
8065		-66.406250
8066		-62.500000
8067		-64.453125
8068		-60.546875
8069		-62.500000
8070		-56.640625
8071		-58.593750
8072		-54.687500
8073		-56.640625
8074		-50.781250
8075		-52.734375
8076		-48.828125
8077		-50.781250
8078		-44.921875
8079		-46.875000
8080		-42.968750
8081		-42.968750
8082		-39.062500
8083		-39.062500
8084		-33.203125
8085		-37.109375
8086		-31.250000
8087		-33.203125
8088		-27.343750
8089		-29.296875
8090		-23.437500
8091		-25.390625
8092		-19.531250
8093		-21.484375
8094		-15.625000
8095		-17.578125
8096		-11.718750
8097		-13.671875
8098		-7.812500
8099		-9.765625
8100		-3.906250
8101		-5.859375
8102		0.000000
8103		0.000000
8104		3.906250
8105		1.953125
8106		7.812500
8107		5.859375
8108		11.718750
8109		11.718750
8110		17.578125
8111		15.625000
8112		19.531250
8113		19.531250
8114		23.437500
8115		23.437500
8116		27.343750
8117		25.390625
8118		33.203125
8119		31.250000
8120		35.156250
8121		35.156250
8122		39.062500
8123		37.109375
8124		42.968750
8125		41.015625
8126		46.875000
8127		44.921875
8128		50.781250
8129		48.828125
8130		54.687500
8131		52.734375
8132		56.640625
8133		54.687500
8134		60.546875
8135		58.593750
8136		64.453125
8137		58.593750
8138		68.359375
8139		62.500000
8140		68.359375
8141		68.359375
8142		74.218750
8143		70.312500
8144		74.218750
8145		72.265625
8146		78.125000
8147		74.218750
8148		80.078125
8149		78.125000
8150		82.031250
8151		80.078125
8152		85.937500
8153		80.078125
8154		87.890625
8155		82.031250
8156		89.843750
8157		85.937500
8158		89.843750
8159		85.937500
8160		91.796875
8161		87.890625
8162		93.750000
8163		89.843750
8164		93.750000
8165		91.796875
8166		95.703125
8167		91.796875
8168		97.656250
8169		91.796875
8170		99.609375
8171		91.796875
8172		99.609375
8173		93.750000
8174		101.562500
8175		93.750000
8176		99.609375
8177		93.750000
8178		101.562500
8179		93.750000
8180		101.562500
8181		97.656250
8182		99.609375
8183		95.703125
8184		99.609375
8185		93.750000
8186		101.562500
8187		93.750000
8188		99.609375
8189		93.750000
8190		99.609375
8191		91.796875
8192		99.609375
8193		91.796875
8194		99.609375
8195		89.843750
8196		97.656250
8197		89.843750
8198		95.703125
8199		89.843750
8200		93.750000
8201		87.890625
8202		91.796875
8203		83.984375
8204		91.796875
8205		83.984375
8206		89.843750
8207		82.031250
8208		87.890625
8209		80.078125
8210		85.937500
8211		78.125000
8212		83.984375
8213		76.171875
8214		82.031250
8215		74.218750
8216		78.125000
8217		70.312500
8218		74.218750
8219		66.406250
8220		74.218750
8221		62.500000
8222		70.312500
8223		60.546875
8224		68.359375
8225		56.640625
8226		64.453125
8227		54.687500
8228		62.500000
8229		50.781250
8230		58.593750
8231		48.828125
8232		54.687500
8233		44.921875
8234		50.781250
8235		41.015625
8236		46.875000
8237		37.109375
8238		42.968750
8239		33.203125
8240		41.015625
8241		29.296875
8242		37.109375
8243		25.390625
8244		33.203125
8245		21.484375
8246		29.296875
8247		17.578125
8248		27.343750
8249		13.671875
8250		19.531250
8251		9.765625
8252		15.625000
8253		5.859375
8254		13.671875
8255		0.000000
8256		9.765625
8257		-3.906250
8258		5.859375
8259		-7.812500
8260		1.953125
8261		-11.718750
8262		-1.953125
8263		-15.625000
8264		-5.859375
8265		-17.578125
8266		-11.718750
8267		-21.484375
8268		-15.625000
8269		-27.343750
8270		-19.531250
8271		-31.250000
8272		-21.484375
8273		-35.156250
8274		-25.390625
8275		-39.062500
8276		-29.296875
8277		-42.968750
8278		-33.203125
8279		-44.921875
8280		-37.109375
8281		-46.875000
8282		-39.062500
8283		-50.781250
8284		-44.921875
8285		-54.687500
8286		-48.828125
8287		-56.640625
8288		-50.781250
8289		-60.546875
8290		-52.734375
8291		-64.453125
8292		-54.687500
8293		-66.406250
8294		-58.593750
8295		-68.359375
8296		-60.546875
8297		-70.312500
8298		-62.500000
8299		-70.312500
8300		-68.359375
8301		-72.265625
8302		-70.312500
8303		-78.125000
8304		-70.312500
8305		-78.125000
8306		-72.265625
8307		-80.078125
8308		-72.265625
8309		-82.031250
8310		-74.218750
8311		-82.031250
8312		-74.218750
8313		-83.984375
8314		-76.171875
8315		-83.984375
8316		-76.171875
8317		-82.031250
8318		-80.078125
8319		-85.937500
8320		-78.125000
8321		-85.937500
8322		-78.125000
8323		-83.984375
8324		-78.125000
8325		-83.984375
8326		-78.125000
8327		-83.984375
8328		-76.171875
8329		-83.984375
8330		-76.171875
8331		-82.031250
8332		-76.171875
8333		-78.125000
8334		-76.171875
8335		-78.125000
8336		-74.218750
8337		-78.125000
8338		-72.265625
8339		-78.125000
8340		-70.312500
8341		-76.171875
8342		-68.359375
8343		-74.218750
8344		-64.453125
8345		-72.265625
8346		-64.453125
8347		-70.312500
8348		-60.546875
8349		-64.453125
8350		-60.546875
8351		-62.500000
8352		-56.640625
8353		-58.593750
8354		-52.734375
8355		-58.593750
8356		-48.828125
8357		-54.687500
8358		-46.875000
8359		-50.781250
8360		-42.968750
8361		-48.828125
8362		-39.062500
8363		-44.921875
8364		-37.109375
8365		-41.015625
8366		-35.156250
8367		-37.109375
8368		-31.250000
8369		-33.203125
8370		-25.390625
8371		-31.250000
8372		-21.484375
8373		-27.343750
8374		-17.578125
8375		-23.437500
8376		-13.671875
8377		-19.531250
8378		-9.765625
8379		-15.625000
8380		-5.859375
8381		-11.718750
8382		-3.906250
8383		-5.859375
8384		0.000000
8385		-1.953125
8386		3.906250
8387		1.953125
8388		9.765625
8389		3.906250
8390		13.671875
8391		7.812500
8392		17.578125
8393		11.718750
8394		21.484375
8395		17.578125
8396		25.390625
8397		19.531250
8398		29.296875
8399		25.390625
8400		31.250000
8401		31.250000
8402		35.156250
8403		33.203125
8404		41.015625
8405		35.156250
8406		44.921875
8407		39.062500
8408		48.828125
8409		42.968750
8410		50.781250
8411		46.875000
8412		54.687500
8413		48.828125
8414		58.593750
8415		52.734375
8416		60.546875
8417		58.593750
8418		62.500000
8419		60.546875
8420		66.406250
8421		62.500000
8422		70.312500
8423		64.453125
8424		72.265625
8425		68.359375
8426		76.171875
8427		70.312500
8428		78.125000
8429		72.265625
8430		80.078125
8431		74.218750
8432		83.984375
8433		80.078125
8434		83.984375
8435		82.031250
8436		85.937500
8437		82.031250
8438		89.843750
8439		82.031250
8440		91.796875
8441		85.937500
8442		91.796875
8443		85.937500
8444		93.750000
8445		87.890625
8446		95.703125
8447		87.890625
8448		97.656250
8449		89.843750
8450		95.703125
8451		93.750000
8452		97.656250
8453		93.750000
8454		97.656250
8455		93.750000
8456		99.609375
8457		93.750000
8458		99.609375
8459		93.750000
8460		101.562500
8461		93.750000
8462		101.562500
8463		93.750000
8464		101.562500
8465		93.750000
8466		101.562500
8467		95.703125
8468		97.656250
8469		95.703125
8470		97.656250
8471		93.750000
8472		99.609375
8473		91.796875
8474		99.609375
8475		91.796875
8476		97.656250
8477		89.843750
8478		97.656250
8479		89.843750
8480		95.703125
8481		87.890625
8482		95.703125
8483		87.890625
8484		93.750000
8485		85.937500
8486		89.843750
8487		83.984375
8488		89.843750
8489		80.078125
8490		87.890625
8491		78.125000
8492		85.937500
8493		76.171875
8494		83.984375
8495		74.218750
8496		82.031250
8497		70.312500
8498		80.078125
8499		70.312500
8500		78.125000
8501		68.359375
8502		72.265625
8503		64.453125
8504		70.312500
8505		60.546875
8506		68.359375
8507		56.640625
8508		64.453125
8509		54.687500
8510		62.500000
8511		50.781250
8512		58.593750
8513		46.875000
8514		56.640625
8515		42.968750
8516		52.734375
8517		41.015625
8518		46.875000
8519		39.062500
8520		42.968750
8521		31.250000
8522		39.062500
8523		27.343750
8524		39.062500
8525		25.390625
8526		33.203125
8527		19.531250
8528		29.296875
8529		15.625000
8530		25.390625
8531		11.718750
8532		23.437500
8533		9.765625
8534		17.578125
8535		5.859375
8536		11.718750
8537		0.000000
8538		7.812500
8539		-3.906250
8540		5.859375
8541		-7.812500
8542		1.953125
8543		-11.718750
8544		-1.953125
8545		-13.671875
8546		-5.859375
8547		-19.531250
8548		-9.765625
8549		-23.437500
8550		-13.671875
8551		-25.390625
8552		-19.531250
8553		-29.296875
8554		-23.437500
8555		-35.156250
8556		-27.343750
8557		-39.062500
8558		-29.296875
8559		-41.015625
8560		-31.250000
8561		-46.875000
8562		-37.109375
8563		-48.828125
8564		-41.015625
8565		-52.734375
8566		-42.968750
8567		-52.734375
8568		-46.875000
8569		-56.640625
8570		-50.781250
8571		-60.546875
8572		-54.687500
8573		-62.500000
8574		-56.640625
8575		-66.406250
8576		-58.593750
8577		-68.359375
8578		-60.546875
8579		-70.312500
8580		-62.500000
8581		-72.265625
8582		-66.406250
8583		-74.218750
8584		-66.406250
8585		-74.218750
8586		-70.312500
8587		-76.171875
8588		-72.265625
8589		-80.078125
8590		-72.265625
8591		-82.031250
8592		-74.218750
8593		-82.031250
8594		-76.171875
8595		-83.984375
8596		-76.171875
8597		-83.984375
8598		-78.125000
8599		-83.984375
8600		-78.125000
8601		-83.984375
8602		-78.125000
8603		-82.031250
8604		-80.078125
8605		-85.937500
8606		-78.125000
8607		-83.984375
8608		-78.125000
8609		-83.984375
8610		-78.125000
8611		-83.984375
8612		-76.171875
8613		-82.031250
8614		-76.171875
8615		-82.031250
8616		-74.218750
8617		-80.078125
8618		-74.218750
8619		-76.171875
8620		-74.218750
8621		-76.171875
8622		-70.312500
8623		-76.171875
8624		-68.359375
8625		-74.218750
8626		-66.406250
8627		-72.265625
8628		-64.453125
8629		-70.312500
8630		-62.500000
8631		-68.359375
8632		-60.546875
8633		-66.406250
8634		-56.640625
8635		-60.546875
8636		-56.640625
8637		-56.640625
8638		-52.734375
8639		-54.687500
8640		-46.875000
8641		-52.734375
8642		-44.921875
8643		-48.828125
8644		-41.015625
8645		-46.875000
8646		-37.109375
8647		-42.968750
8648		-35.156250
8649		-39.062500
8650		-31.250000
8651		-35.156250
8652		-29.296875
8653		-29.296875
8654		-25.390625
8655		-27.343750
8656		-19.531250
8657		-25.390625
8658		-15.625000
8659		-19.531250
8660		-11.718750
8661		-17.578125
8662		-7.812500
8663		-11.718750
8664		-3.906250
8665		-9.765625
8666		0.000000
8667		-3.906250
8668		3.906250
8669		1.953125
8670		5.859375
8671		5.859375
8672		9.765625
8673		7.812500
8674		15.625000
8675		11.718750
8676		19.531250
8677		15.625000
8678		25.390625
8679		19.531250
8680		27.343750
8681		23.437500
8682		33.203125
8683		25.390625
8684		37.109375
8685		31.250000
8686		37.109375
8687		35.156250
8688		41.015625
8689		39.062500
8690		46.875000
8691		42.968750
8692		50.781250
8693		46.875000
8694		54.687500
8695		48.828125
8696		56.640625
8697		52.734375
8698		60.546875
8699		54.687500
8700		64.453125
8701		58.593750
8702		66.406250
8703		62.500000
8704		68.359375
8705		66.406250
8706		72.265625
8707		66.406250
8708		74.218750
8709		70.312500
8710		78.125000
8711		72.265625
8712		80.078125
8713		76.171875
8714		82.031250
8715		76.171875
8716		83.984375
8717		80.078125
8718		87.890625
8719		83.984375
8720		85.937500
8721		85.937500
8722		87.890625
8723		85.937500
8724		91.796875
8725		85.937500
8726		93.750000
8727		87.890625
8728		95.703125
8729		87.890625
8730		97.656250
8731		89.843750
8732		97.656250
8733		91.796875
8734		99.609375
8735		91.796875
8736		99.609375
8737		95.703125
8738		97.656250
8739		93.750000
8740		99.609375
8741		93.750000
8742		101.562500
8743		93.750000
8744		101.562500
8745		93.750000
8746		101.562500
8747		93.750000
8748		101.562500
8749		93.750000
8750		101.562500
8751		93.750000
8752		99.609375
8753		95.703125
8754		97.656250
8755		93.750000
8756		97.656250
8757		91.796875
8758		97.656250
8759		89.843750
8760		97.656250
8761		89.843750
8762		97.656250
8763		87.890625
8764		95.703125
8765		85.937500
8766		93.750000
8767		83.984375
8768		91.796875
8769		83.984375
8770		91.796875
8771		82.031250
8772		85.937500
8773		80.078125
8774		85.937500
8775		76.171875
8776		83.984375
8777		74.218750
8778		82.031250
8779		72.265625
8780		80.078125
8781		70.312500
8782		78.125000
8783		66.406250
8784		76.171875
8785		64.453125
8786		72.265625
8787		62.500000
8788		68.359375
8789		58.593750
8790		64.453125
8791		54.687500
8792		62.500000
8793		50.781250
8794		60.546875
8795		46.875000
8796		56.640625
8797		44.921875
8798		52.734375
8799		41.015625
8800		50.781250
8801		37.109375
8802		46.875000
8803		35.156250
8804		41.015625
8805		31.250000
8806		37.109375
8807		25.390625
8808		33.203125
8809		21.484375
8810		31.250000
8811		17.578125
8812		27.343750
8813		15.625000
8814		23.437500
8815		9.765625
8816		19.531250
8817		5.859375
8818		15.625000
8819		3.906250
8820		11.718750
8821		0.000000
8822		5.859375
8823		-7.812500
8824		1.953125
8825		-11.718750
8826		-1.953125
8827		-13.671875
8828		-5.859375
8829		-19.531250
8830		-9.765625
8831		-21.484375
8832		-13.671875
8833		-27.343750
8834		-17.578125
8835		-29.296875
8836		-21.484375
8837		-31.250000
8838		-27.343750
8839		-35.156250
8840		-29.296875
8841		-41.015625
8842		-33.203125
8843		-44.921875
8844		-35.156250
8845		-48.828125
8846		-39.062500
8847		-50.781250
8848		-42.968750
8849		-54.687500
8850		-44.921875
8851		-56.640625
8852		-48.828125
8853		-58.593750
8854		-52.734375
8855		-62.500000
8856		-56.640625
8857		-66.406250
8858		-58.593750
8859		-68.359375
8860		-60.546875
8861		-72.265625
8862		-62.500000
8863		-72.265625
8864		-66.406250
8865		-76.171875
8866		-66.406250
8867		-78.125000
8868		-68.359375
8869		-78.125000
8870		-70.312500
8871		-78.125000
8872		-74.218750
8873		-80.078125
8874		-76.171875
8875		-82.031250
8876		-76.171875
8877		-83.984375
8878		-76.171875
8879		-83.984375
8880		-76.171875
8881		-83.984375
8882		-78.125000
8883		-85.937500
8884		-78.125000
8885		-85.937500
8886		-78.125000
8887		-83.984375
8888		-80.078125
8889		-82.031250
8890		-80.078125
8891		-83.984375
8892		-78.125000
8893		-83.984375
8894		-76.171875
8895		-83.984375
8896		-76.171875
8897		-82.031250
8898		-76.171875
8899		-82.031250
8900		-74.218750
8901		-80.078125
8902		-72.265625
8903		-78.125000
8904		-72.265625
8905		-74.218750
8906		-70.312500
8907		-74.218750
8908		-66.406250
8909		-72.265625
8910		-64.453125
8911		-70.312500
8912		-62.500000
8913		-68.359375
8914		-60.546875
8915		-66.406250
8916		-56.640625
8917		-62.500000
8918		-54.687500
8919		-60.546875
8920		-52.734375
8921		-54.687500
8922		-50.781250
8923		-50.781250
8924		-46.875000
8925		-50.781250
8926		-41.015625
8927		-46.875000
8928		-37.109375
8929		-42.968750
8930		-35.156250
8931		-41.015625
8932		-31.250000
8933		-37.109375
8934		-27.343750
8935		-33.203125
8936		-25.390625
8937		-29.296875
8938		-21.484375
8939		-23.437500
8940		-17.578125
8941		-19.531250
8942		-11.718750
8943		-17.578125
8944		-9.765625
8945		-13.671875
8946		-3.906250
8947		-9.765625
8948		0.000000
8949		-5.859375
8950		3.906250
8951		0.000000
8952		7.812500
8953		1.953125
8954		9.765625
8955		7.812500
8956		13.671875
8957		11.718750
8958		19.531250
8959		15.625000
8960		23.437500
8961		17.578125
8962		27.343750
8963		23.437500
8964		33.203125
8965		27.343750
8966		35.156250
8967		31.250000
8968		39.062500
8969		33.203125
8970		42.968750
8971		39.062500
8972		44.921875
8973		42.968750
8974		46.875000
8975		46.875000
8976		52.734375
8977		46.875000
8978		56.640625
8979		52.734375
8980		60.546875
8981		54.687500
8982		62.500000
8983		58.593750
8984		66.406250
8985		60.546875
8986		68.359375
8987		64.453125
8988		70.312500
8989		68.359375
8990		72.265625
8991		70.312500
8992		76.171875
8993		72.265625
8994		80.078125
8995		74.218750
8996		82.031250
8997		76.171875
8998		83.984375
8999		78.125000
9000		85.937500
9001		80.078125
9002		89.843750
9003		82.031250
9004		89.843750
9005		85.937500
9006		89.843750
9007		87.890625
9008		91.796875
9009		87.890625
9010		95.703125
9011		89.843750
9012		95.703125
9013		89.843750
9014		97.656250
9015		91.796875
9016		97.656250
9017		91.796875
9018		99.609375
9019		91.796875
9020		99.609375
9021		95.703125
9022		99.609375
9023		95.703125
9024		97.656250
9025		95.703125
9026		101.562500
9027		93.750000
9028		101.562500
9029		93.750000
9030		101.562500
9031		93.750000
9032		101.562500
9033		93.750000
9034		99.609375
9035		93.750000
9036		99.609375
9037		91.796875
9038		99.609375
9039		93.750000
9040		95.703125
9041		91.796875
9042		95.703125
9043		89.843750
9044		95.703125
9045		87.890625
9046		93.750000
9047		87.890625
9048		93.750000
9049		85.937500
9050		91.796875
9051		83.984375
9052		89.843750
9053		82.031250
9054		87.890625
9055		82.031250
9056		85.937500
9057		78.125000
9058		82.031250
9059		74.218750
9060		82.031250
9061		72.265625
9062		80.078125
9063		70.312500
9064		78.125000
9065		66.406250
9066		76.171875
9067		64.453125
9068		72.265625
9069		60.546875
9070		70.312500
9071		60.546875
9072		66.406250
9073		56.640625
9074		62.500000
9075		52.734375
9076		58.593750
9077		48.828125
9078		56.640625
9079		44.921875
9080		52.734375
9081		41.015625
9082		50.781250
9083		37.109375
9084		46.875000
9085		33.203125
9086		42.968750
9087		31.250000
9088		39.062500
9089		29.296875
9090		33.203125
9091		25.390625
9092		31.250000
9093		19.531250
9094		27.343750
9095		13.671875
9096		23.437500
9097		9.765625
9098		19.531250
9099		5.859375
9100		15.625000
9101		1.953125
9102		11.718750
9103		-1.953125
9104		7.812500
9105		-3.906250
9106		3.906250
9107		-7.812500
9108		-1.953125
9109		-13.671875
9110		-5.859375
9111		-17.578125
9112		-7.812500
9113		-21.484375
9114		-11.718750
9115		-25.390625
9116		-15.625000
9117		-29.296875
9118		-21.484375
9119		-33.203125
9120		-23.437500
9121		-35.156250
9122		-27.343750
9123		-39.062500
9124		-33.203125
9125		-42.968750
9126		-37.109375
9127		-46.875000
9128		-39.062500
9129		-50.781250
9130		-41.015625
9131		-54.687500
9132		-44.921875
9133		-56.640625
9134		-48.828125
9135		-60.546875
9136		-50.781250
9137		-62.500000
9138		-54.687500
9139		-62.500000
9140		-58.593750
9141		-66.406250
9142		-62.500000
9143		-70.312500
9144		-64.453125
9145		-72.265625
9146		-64.453125
9147		-74.218750
9148		-66.406250
9149		-76.171875
9150		-68.359375
9151		-78.125000
9152		-70.312500
9153		-78.125000
9154		-72.265625
9155		-80.078125
9156		-74.218750
9157		-80.078125
9158		-76.171875
9159		-82.031250
9160		-78.125000
9161		-83.984375
9162		-76.171875
9163		-83.984375
9164		-78.125000
9165		-83.984375
9166		-78.125000
9167		-83.984375
9168		-78.125000
9169		-83.984375
9170		-78.125000
9171		-83.984375
9172		-78.125000
9173		-82.031250
9174		-78.125000
9175		-82.031250
9176		-78.125000
9177		-82.031250
9178		-76.171875
9179		-82.031250
9180		-74.218750
9181		-82.031250
9182		-74.218750
9183		-80.078125
9184		-72.265625
9185		-78.125000
9186		-70.312500
9187		-76.171875
9188		-68.359375
9189		-74.218750
9190		-68.359375
9191		-70.312500
9192		-66.406250
9193		-68.359375
9194		-62.500000
9195		-68.359375
9196		-60.546875
9197		-66.406250
9198		-56.640625
9199		-62.500000
9200		-54.687500
9201		-60.546875
9202		-50.781250
9203		-58.593750
9204		-48.828125
9205		-54.687500
9206		-46.875000
9207		-48.828125
9208		-42.968750
9209		-44.921875
9210		-41.015625
9211		-42.968750
9212		-35.156250
9213		-41.015625
9214		-31.250000
9215		-37.109375
9216		-27.343750
9217		-33.203125
9218		-23.437500
9219		-29.296875
9220		-19.531250
9221		-25.390625
9222		-15.625000
9223		-19.531250
9224		-13.671875
9225		-15.625000
9226		-9.765625
9227		-11.718750
9228		-3.906250
9229		-9.765625
9230		0.000000
9231		-5.859375
9232		3.906250
9233		-1.953125
9234		7.812500
9235		1.953125
9236		11.718750
9237		5.859375
9238		15.625000
9239		11.718750
9240		17.578125
9241		15.625000
9242		21.484375
9243		19.531250
9244		27.343750
9245		21.484375
9246		31.250000
9247		25.390625
9248		35.156250
9249		29.296875
9250		39.062500
9251		33.203125
9252		42.968750
9253		37.109375
9254		46.875000
9255		41.015625
9256		48.828125
9257		44.921875
9258		50.781250
9259		48.828125
9260		54.687500
9261		52.734375
9262		60.546875
9263		54.687500
9264		62.500000
9265		58.593750
9266		66.406250
9267		60.546875
9268		70.312500
9269		64.453125
9270		72.265625
9271		66.406250
9272		74.218750
9273		68.359375
9274		76.171875
9275		74.218750
9276		78.125000
9277		76.171875
9278		82.031250
9279		76.171875
9280		83.984375
9281		78.125000
9282		85.937500
9283		80.078125
9284		87.890625
9285		82.031250
9286		89.843750
9287		83.984375
9288		91.796875
9289		85.937500
9290		93.750000
9291		89.843750
9292		91.796875
9293		89.843750
9294		93.750000
9295		89.843750
9296		97.656250
9297		91.796875
9298		97.656250
9299		91.796875
9300		99.609375
9301		93.750000
9302		99.609375
9303		93.750000
9304		99.609375
9305		93.750000
9306		101.562500
9307		95.703125
9308		99.609375
9309		95.703125
9310		99.609375
9311		93.750000
9312		99.609375
9313		93.750000
9314		99.609375
9315		93.750000
9316		99.609375
9317		91.796875
9318		99.609375
9319		91.796875
9320		99.609375
9321		91.796875
9322		97.656250
9323		89.843750
9324		97.656250
9325		91.796875
9326		93.750000
9327		89.843750
9328		93.750000
9329		85.937500
9330		93.750000
9331		83.984375
9332		91.796875
9333		82.031250
9334		89.843750
9335		82.031250
9336		87.890625
9337		78.125000
9338		85.937500
9339		78.125000
9340		83.984375
9341		76.171875
9342		80.078125
9343		74.218750
9344		78.125000
9345		70.312500
9346		78.125000
9347		66.406250
9348		74.218750
9349		64.453125
9350		72.265625
9351		60.546875
9352		70.312500
9353		58.593750
9354		66.406250
9355		54.687500
9356		62.500000
9357		52.734375
9358		60.546875
9359		50.781250
9360		54.687500
9361		44.921875
9362		50.781250
9363		41.015625
9364		50.781250
9365		39.062500
9366		46.875000
9367		33.203125
9368		42.968750
9369		29.296875
9370		39.062500
9371		27.343750
9372		35.156250
9373		23.437500
9374		31.250000
9375		19.531250
9376		25.390625
9377		13.671875
9378		21.484375
9379		9.765625
9380		17.578125
9381		5.859375
9382		15.625000
9383		1.953125
9384		11.718750
9385		-1.953125
9386		7.812500
9387		-5.859375
9388		3.906250
9389		-11.718750
9390		-1.953125
9391		-11.718750
9392		-5.859375
9393		-15.625000
9394		-9.765625
9395		-21.484375
9396		-13.671875
9397		-25.390625
9398		-17.578125
9399		-29.296875
9400		-19.531250
9401		-33.203125
9402		-23.437500
9403		-37.109375
9404		-27.343750
9405		-42.968750
9406		-31.250000
9407		-42.968750
9408		-35.156250
9409		-44.921875
9410		-41.015625
9411		-50.781250
9412		-42.968750
9413		-54.687500
9414		-44.921875
9415		-56.640625
9416		-48.828125
9417		-60.546875
9418		-50.781250
9419		-62.500000
9420		-54.687500
9421		-66.406250
9422		-58.593750
9423		-68.359375
9424		-60.546875
9425		-68.359375
9426		-62.500000
9427		-70.312500
9428		-66.406250
9429		-74.218750
9430		-68.359375
9431		-76.171875
9432		-68.359375
9433		-78.125000
9434		-70.312500
9435		-80.078125
9436		-72.265625
9437		-82.031250
9438		-74.218750
9439		-82.031250
9440		-74.218750
9441		-82.031250
9442		-76.171875
9443		-82.031250
9444		-80.078125
9445		-83.984375
9446		-78.125000
9447		-85.937500
9448		-78.125000
9449		-85.937500
9450		-78.125000
9451		-85.937500
9452		-78.125000
9453		-85.937500
9454		-78.125000
9455		-85.937500
9456		-78.125000
9457		-83.984375
9458		-78.125000
9459		-82.031250
9460		-78.125000
9461		-80.078125
9462		-78.125000
9463		-82.031250
9464		-74.218750
9465		-80.078125
9466		-72.265625
9467		-80.078125
9468		-70.312500
9469		-76.171875
9470		-68.359375
9471		-76.171875
9472		-68.359375
9473		-74.218750
9474		-66.406250
9475		-70.312500
9476		-64.453125
9477		-66.406250
9478		-62.500000
9479		-64.453125
9480		-58.593750
9481		-62.500000
9482		-54.687500
9483		-60.546875
9484		-52.734375
9485		-58.593750
9486		-48.828125
9487		-54.687500
9488		-44.921875
9489		-50.781250
9490		-42.968750
9491		-46.875000
9492		-41.015625
9493		-42.968750
9494		-37.109375
9495		-39.062500
9496		-33.203125
9497		-37.109375
9498		-27.343750
9499		-33.203125
9500		-25.390625
9501		-29.296875
9502		-21.484375
9503		-27.343750
9504		-17.578125
9505		-21.484375
9506		-13.671875
9507		-17.578125
9508		-9.765625
9509		-13.671875
9510		-5.859375
9511		-7.812500
9512		-1.953125
9513		-5.859375
9514		3.906250
9515		-1.953125
9516		5.859375
9517		1.953125
9518		11.718750
9519		5.859375
9520		15.625000
9521		9.765625
9522		19.531250
9523		13.671875
9524		23.437500
9525		17.578125
9526		25.390625
9527		23.437500
9528		29.296875
9529		27.343750
9530		35.156250
9531		29.296875
9532		39.062500
9533		33.203125
9534		41.015625
9535		37.109375
9536		44.921875
9537		41.015625
9538		48.828125
9539		42.968750
9540		52.734375
9541		46.875000
9542		54.687500
9543		52.734375
9544		58.593750
9545		56.640625
9546		60.546875
9547		58.593750
9548		66.406250
9549		60.546875
9550		68.359375
9551		62.500000
9552		72.265625
9553		66.406250
9554		74.218750
9555		68.359375
9556		76.171875
9557		70.312500
9558		80.078125
9559		74.218750
9560		80.078125
9561		78.125000
9562		82.031250
9563		80.078125
9564		85.937500
9565		80.078125
9566		87.890625
9567		82.031250
9568		89.843750
9569		83.984375
9570		91.796875
9571		85.937500
9572		93.750000
9573		87.890625
9574		93.750000
9575		87.890625
9576		95.703125
9577		91.796875
9578		95.703125
9579		91.796875
9580		97.656250
9581		91.796875
9582		99.609375
9583		91.796875
9584		99.609375
9585		91.796875
9586		99.609375
9587		93.750000
9588		99.609375
9589		93.750000
9590		101.562500
9591		93.750000
9592		99.609375
9593		95.703125
9594		97.656250
9595		95.703125
9596		97.656250
9597		93.750000
9598		99.609375
9599		91.796875
9600		99.609375
9601		91.796875
9602		99.609375
9603		91.796875
9604		99.609375
9605		89.843750
9606		97.656250
9607		89.843750
9608		97.656250
9609		89.843750
9610		95.703125
9611		89.843750
9612		91.796875
9613		85.937500
9614		89.843750
9615		83.984375
9616		91.796875
9617		82.031250
9618		89.843750
9619		80.078125
9620		87.890625
9621		76.171875
9622		85.937500
9623		74.218750
9624		83.984375
9625		72.265625
9626		80.078125
9627		72.265625
9628		76.171875
9629		68.359375
9630		74.218750
9631		64.453125
9632		72.265625
9633		60.546875
9634		70.312500
9635		58.593750
9636		68.359375
9637		54.687500
9638		64.453125
9639		50.781250
9640		60.546875
9641		48.828125
9642		58.593750
9643		46.875000
9644		54.687500
9645		42.968750
9646		48.828125
9647		37.109375
9648		44.921875
9649		33.203125
9650		42.968750
9651		31.250000
9652		39.062500
9653		27.343750
9654		35.156250
9655		21.484375
9656		33.203125
9657		19.531250
9658		27.343750
9659		17.578125
9660		23.437500
9661		11.718750
9662		17.578125
9663		9.765625
9664		15.625000
9665		3.906250
9666		11.718750
9667		-1.953125
9668		7.812500
9669		-5.859375
9670		3.906250
9671		-9.765625
9672		0.000000
9673		-13.671875
9674		-3.906250
9675		-17.578125
9676		-7.812500
9677		-19.531250
9678		-13.671875
9679		-23.437500
9680		-17.578125
9681		-29.296875
9682		-21.484375
9683		-33.203125
9684		-23.437500
9685		-37.109375
9686		-27.343750
9687		-41.015625
9688		-31.250000
9689		-44.921875
9690		-35.156250
9691		-46.875000
9692		-39.062500
9693		-48.828125
9694		-41.015625
9695		-50.781250
9696		-46.875000
9697		-56.640625
9698		-48.828125
9699		-60.546875
9700		-50.781250
9701		-62.500000
9702		-54.687500
9703		-64.453125
9704		-56.640625
9705		-68.359375
9706		-58.593750
9707		-70.312500
9708		-62.500000
9709		-72.265625
9710		-64.453125
9711		-72.265625
9712		-68.359375
9713		-74.218750
9714		-70.312500
9715		-78.125000
9716		-72.265625
9717		-80.078125
9718		-72.265625
9719		-82.031250
9720		-74.218750
9721		-82.031250
9722		-74.218750
9723		-83.984375
9724		-76.171875
9725		-83.984375
9726		-78.125000
9727		-83.984375
9728		-78.125000
9729		-83.984375
9730		-80.078125
9731		-85.937500
9732		-78.125000
9733		-85.937500
9734		-78.125000
9735		-85.937500
9736		-78.125000
9737		-85.937500
9738		-78.125000
9739		-83.984375
9740		-78.125000
9741		-83.984375
9742		-76.171875
9743		-82.031250
9744		-76.171875
9745		-80.078125
9746		-76.171875
9747		-78.125000
9748		-76.171875
9749		-80.078125
9750		-72.265625
9751		-78.125000
9752		-70.312500
9753		-76.171875
9754		-68.359375
9755		-74.218750
9756		-66.406250
9757		-72.265625
9758		-64.453125
9759		-68.359375
9760		-60.546875
9761		-66.406250
9762		-60.546875
9763		-62.500000
9764		-58.593750
9765		-60.546875
9766		-52.734375
9767		-58.593750
9768		-50.781250
9769		-54.687500
9770		-46.875000
9771		-52.734375
9772		-42.968750
9773		-48.828125
9774		-39.062500
9775		-44.921875
9776		-37.109375
9777		-41.015625
9778		-35.156250
9779		-37.109375
9780		-31.250000
9781		-33.203125
9782		-25.390625
9783		-31.250000
9784		-21.484375
9785		-27.343750
9786		-17.578125
9787		-23.437500
9788		-13.671875
9789		-19.531250
9790		-9.765625
9791		-15.625000
9792		-5.859375
9793		-11.718750
9794		-3.906250
9795		-5.859375
9796		0.000000
9797		-1.953125
9798		3.906250
9799		1.953125
9800		9.765625
9801		5.859375
9802		13.671875
9803		7.812500
9804		17.578125
9805		11.718750
9806		23.437500
9807		15.625000
9808		25.390625
9809		19.531250
9810		29.296875
9811		23.437500
9812		31.250000
9813		29.296875
9814		35.156250
9815		33.203125
9816		41.015625
9817		35.156250
9818		44.921875
9819		39.062500
9820		48.828125
9821		42.968750
9822		50.781250
9823		46.875000
9824		54.687500
9825		50.781250
9826		58.593750
9827		52.734375
9828		60.546875
9829		58.593750
9830		62.500000
9831		60.546875
9832		66.406250
9833		62.500000
9834		70.312500
9835		64.453125
9836		74.218750
9837		66.406250
9838		76.171875
9839		70.312500
9840		78.125000
9841		72.265625
9842		80.078125
9843		74.218750
9844		83.984375
9845		78.125000
9846		83.984375
9847		82.031250
9848		85.937500
9849		82.031250
9850		87.890625
9851		83.984375
9852		89.843750
9853		83.984375
9854		91.796875
9855		85.937500
9856		93.750000
9857		87.890625
9858		95.703125
9859		89.843750
9860		95.703125
9861		89.843750
9862		97.656250
9863		93.750000
9864		95.703125
9865		93.750000
9866		97.656250
9867		91.796875
9868		99.609375
9869		93.750000
9870		99.609375
9871		91.796875
9872		99.609375
9873		93.750000
9874		99.609375
9875		93.750000
9876		101.562500
9877		93.750000
9878		99.609375
9879		95.703125
9880		97.656250
9881		95.703125
9882		97.656250
9883		91.796875
9884		97.656250
9885		91.796875
9886		97.656250
9887		89.843750
9888		97.656250
9889		89.843750
9890		95.703125
9891		87.890625
9892		95.703125
9893		85.937500
9894		93.750000
9895		85.937500
9896		91.796875
9897		85.937500
9898		87.890625
9899		80.078125
9900		87.890625
9901		80.078125
9902		87.890625
9903		78.125000
9904		85.937500
9905		74.218750
9906		83.984375
9907		72.265625
9908		82.031250
9909		70.312500
9910		78.125000
9911		68.359375
9912		76.171875
9913		66.406250
9914		70.312500
9915		62.500000
9916		68.359375
9917		58.593750
9918		66.406250
9919		54.687500
9920		64.453125
9921		52.734375
9922		60.546875
9923		48.828125
9924		56.640625
9925		44.921875
9926		54.687500
9927		42.968750
9928		50.781250
9929		41.015625
9930		46.875000
9931		37.109375
9932		42.968750
9933		31.250000
9934		39.062500
9935		27.343750
9936		35.156250
9937		23.437500
9938		33.203125
9939		19.531250
9940		29.296875
9941		15.625000
9942		25.390625
9943		11.718750
9944		21.484375
9945		9.765625
9946		15.625000
9947		5.859375
9948		9.765625
9949		0.000000
9950		5.859375
9951		-3.906250
9952		3.906250
9953		-7.812500
9954		0.000000
9955		-13.671875
9956		-3.906250
9957		-17.578125
9958		-7.812500
9959		-21.484375
9960		-11.718750
9961		-25.390625
9962		-15.625000
9963		-27.343750
9964		-21.484375
9965		-31.250000
9966		-25.390625
9967		-35.156250
9968		-27.343750
9969		-39.062500
9970		-31.250000
9971		-44.921875
9972		-35.156250
9973		-46.875000
9974		-39.062500
9975		-50.781250
9976		-41.015625
9977		-52.734375
9978		-44.921875
9979		-54.687500
9980		-46.875000
9981		-58.593750
9982		-52.734375
9983		-62.500000
9984		-56.640625
9985		-64.453125
9986		-56.640625
9987		-68.359375
9988		-60.546875
9989		-70.312500
9990		-62.500000
9991		-72.265625
9992		-64.453125
9993		-74.218750
9994		-66.406250
9995		-76.171875
9996		-68.359375
9997		-76.171875
9998		-72.265625
9999		-78.125000
10000		-74.218750
