Channel              :		CH1
Frequency            :		1.774kHz
Period               :		0.564ms
PK-PK                :		205.1mV
Probe attenuation    :		1X
Voltage per ADC value:		0.122070mV
Time interval        :		2.00000us

index		CH1_Voltage(mV)
1		99.609375
2		99.609375
3		95.703125
4		99.609375
5		95.703125
6		99.609375
7		95.703125
8		97.656250
9		93.750000
10		97.656250
11		91.796875
12		95.703125
13		89.843750
14		93.750000
15		87.890625
16		93.750000
17		85.937500
18		89.843750
19		83.984375
20		87.890625
21		82.031250
22		87.890625
23		80.078125
24		83.984375
25		76.171875
26		82.031250
27		74.218750
28		78.125000
29		72.265625
30		76.171875
31		68.359375
32		74.218750
33		66.406250
34		70.312500
35		62.500000
36		66.406250
37		58.593750
38		64.453125
39		56.640625
40		60.546875
41		52.734375
42		56.640625
43		48.828125
44		52.734375
45		44.921875
46		48.828125
47		41.015625
48		46.875000
49		37.109375
50		42.968750
51		33.203125
52		37.109375
53		27.343750
54		33.203125
55		23.437500
56		31.250000
57		19.531250
58		25.390625
59		15.625000
60		21.484375
61		9.765625
62		15.625000
63		5.859375
64		11.718750
65		0.000000
66		7.812500
67		-1.953125
68		3.906250
69		-7.812500
70		0.000000
71		-11.718750
72		-5.859375
73		-15.625000
74		-9.765625
75		-21.484375
76		-13.671875
77		-25.390625
78		-19.531250
79		-29.296875
80		-23.437500
81		-33.203125
82		-27.343750
83		-37.109375
84		-31.250000
85		-41.015625
86		-37.109375
87		-46.875000
88		-41.015625
89		-50.781250
90		-44.921875
91		-52.734375
92		-48.828125
93		-56.640625
94		-50.781250
95		-62.500000
96		-56.640625
97		-64.453125
98		-58.593750
99		-68.359375
100		-62.500000
101		-70.312500
102		-66.406250
103		-74.218750
104		-70.312500
105		-78.125000
106		-72.265625
107		-80.078125
108		-76.171875
109		-82.031250
110		-78.125000
111		-85.937500
112		-80.078125
113		-87.890625
114		-83.984375
115		-89.843750
116		-85.937500
117		-91.796875
118		-85.937500
119		-93.750000
120		-89.843750
121		-93.750000
122		-89.843750
123		-95.703125
124		-91.796875
125		-95.703125
126		-93.750000
127		-97.656250
128		-93.750000
129		-97.656250
130		-95.703125
131		-97.656250
132		-95.703125
133		-99.609375
134		-95.703125
135		-97.656250
136		-95.703125
137		-97.656250
138		-95.703125
139		-97.656250
140		-93.750000
141		-97.656250
142		-93.750000
143		-95.703125
144		-91.796875
145		-95.703125
146		-91.796875
147		-93.750000
148		-89.843750
149		-91.796875
150		-87.890625
151		-89.843750
152		-87.890625
153		-87.890625
154		-83.984375
155		-87.890625
156		-82.031250
157		-83.984375
158		-80.078125
159		-82.031250
160		-78.125000
161		-80.078125
162		-74.218750
163		-76.171875
164		-72.265625
165		-74.218750
166		-68.359375
167		-70.312500
168		-66.406250
169		-66.406250
170		-62.500000
171		-64.453125
172		-58.593750
173		-60.546875
174		-54.687500
175		-56.640625
176		-50.781250
177		-54.687500
178		-46.875000
179		-48.828125
180		-42.968750
181		-44.921875
182		-39.062500
183		-41.015625
184		-35.156250
185		-37.109375
186		-31.250000
187		-31.250000
188		-27.343750
189		-29.296875
190		-21.484375
191		-23.437500
192		-17.578125
193		-19.531250
194		-13.671875
195		-15.625000
196		-9.765625
197		-11.718750
198		-3.906250
199		-5.859375
200		0.000000
201		-1.953125
202		3.906250
203		3.906250
204		9.765625
205		7.812500
206		13.671875
207		11.718750
208		17.578125
209		15.625000
210		21.484375
211		19.531250
212		25.390625
213		23.437500
214		29.296875
215		29.296875
216		35.156250
217		33.203125
218		39.062500
219		37.109375
220		42.968750
221		41.015625
222		46.875000
223		42.968750
224		50.781250
225		48.828125
226		54.687500
227		52.734375
228		56.640625
229		56.640625
230		60.546875
231		58.593750
232		64.453125
233		62.500000
234		66.406250
235		64.453125
236		70.312500
237		68.359375
238		72.265625
239		72.265625
240		76.171875
241		74.218750
242		80.078125
243		76.171875
244		80.078125
245		80.078125
246		83.984375
247		82.031250
248		87.890625
249		83.984375
250		87.890625
251		85.937500
252		89.843750
253		87.890625
254		91.796875
255		89.843750
256		93.750000
257		91.796875
258		95.703125
259		93.750000
260		97.656250
261		93.750000
262		97.656250
263		95.703125
264		99.609375
265		95.703125
266		99.609375
267		95.703125
268		101.562500
269		97.656250
270		101.562500
271		97.656250
272		101.562500
273		97.656250
274		101.562500
275		97.656250
276		101.562500
277		97.656250
278		101.562500
279		99.609375
280		101.562500
281		97.656250
282		101.562500
283		97.656250
284		99.609375
285		97.656250
286		99.609375
287		95.703125
288		99.609375
289		93.750000
290		97.656250
291		93.750000
292		95.703125
293		91.796875
294		95.703125
295		89.843750
296		93.750000
297		87.890625
298		93.750000
299		85.937500
300		89.843750
301		83.984375
302		89.843750
303		82.031250
304		85.937500
305		80.078125
306		83.984375
307		78.125000
308		83.984375
309		74.218750
310		80.078125
311		72.265625
312		76.171875
313		70.312500
314		74.218750
315		66.406250
316		72.265625
317		62.500000
318		68.359375
319		60.546875
320		66.406250
321		56.640625
322		60.546875
323		52.734375
324		58.593750
325		48.828125
326		54.687500
327		44.921875
328		50.781250
329		41.015625
330		46.875000
331		37.109375
332		42.968750
333		33.203125
334		39.062500
335		29.296875
336		35.156250
337		25.390625
338		31.250000
339		19.531250
340		25.390625
341		15.625000
342		21.484375
343		11.718750
344		17.578125
345		7.812500
346		13.671875
347		1.953125
348		7.812500
349		-1.953125
350		3.906250
351		-5.859375
352		0.000000
353		-11.718750
354		-3.906250
355		-15.625000
356		-9.765625
357		-19.531250
358		-13.671875
359		-23.437500
360		-17.578125
361		-27.343750
362		-21.484375
363		-33.203125
364		-27.343750
365		-37.109375
366		-31.250000
367		-41.015625
368		-35.156250
369		-44.921875
370		-39.062500
371		-48.828125
372		-42.968750
373		-52.734375
374		-46.875000
375		-56.640625
376		-50.781250
377		-60.546875
378		-54.687500
379		-64.453125
380		-58.593750
381		-66.406250
382		-62.500000
383		-70.312500
384		-66.406250
385		-74.218750
386		-68.359375
387		-76.171875
388		-72.265625
389		-78.125000
390		-74.218750
391		-82.031250
392		-76.171875
393		-83.984375
394		-80.078125
395		-85.937500
396		-82.031250
397		-87.890625
398		-83.984375
399		-89.843750
400		-85.937500
401		-91.796875
402		-87.890625
403		-93.750000
404		-89.843750
405		-93.750000
406		-91.796875
407		-95.703125
408		-91.796875
409		-97.656250
410		-93.750000
411		-97.656250
412		-93.750000
413		-97.656250
414		-93.750000
415		-97.656250
416		-93.750000
417		-97.656250
418		-93.750000
419		-97.656250
420		-93.750000
421		-95.703125
422		-93.750000
423		-97.656250
424		-91.796875
425		-95.703125
426		-91.796875
427		-93.750000
428		-91.796875
429		-93.750000
430		-89.843750
431		-91.796875
432		-87.890625
433		-89.843750
434		-85.937500
435		-87.890625
436		-83.984375
437		-85.937500
438		-82.031250
439		-83.984375
440		-80.078125
441		-82.031250
442		-76.171875
443		-78.125000
444		-74.218750
445		-76.171875
446		-72.265625
447		-74.218750
448		-68.359375
449		-70.312500
450		-64.453125
451		-66.406250
452		-62.500000
453		-64.453125
454		-58.593750
455		-60.546875
456		-54.687500
457		-56.640625
458		-50.781250
459		-52.734375
460		-46.875000
461		-48.828125
462		-42.968750
463		-44.921875
464		-39.062500
465		-41.015625
466		-35.156250
467		-37.109375
468		-31.250000
469		-33.203125
470		-25.390625
471		-27.343750
472		-21.484375
473		-23.437500
474		-17.578125
475		-19.531250
476		-13.671875
477		-15.625000
478		-7.812500
479		-9.765625
480		-3.906250
481		-5.859375
482		0.000000
483		-1.953125
484		3.906250
485		1.953125
486		9.765625
487		5.859375
488		13.671875
489		11.718750
490		17.578125
491		15.625000
492		21.484375
493		21.484375
494		27.343750
495		25.390625
496		31.250000
497		29.296875
498		35.156250
499		33.203125
500		39.062500
501		37.109375
502		42.968750
503		41.015625
504		46.875000
505		44.921875
506		50.781250
507		48.828125
508		54.687500
509		52.734375
510		58.593750
511		56.640625
512		60.546875
513		58.593750
514		64.453125
515		62.500000
516		68.359375
517		66.406250
518		70.312500
519		68.359375
520		74.218750
521		72.265625
522		76.171875
523		74.218750
524		78.125000
525		78.125000
526		82.031250
527		80.078125
528		83.984375
529		82.031250
530		87.890625
531		83.984375
532		87.890625
533		85.937500
534		91.796875
535		87.890625
536		91.796875
537		89.843750
538		93.750000
539		91.796875
540		95.703125
541		93.750000
542		97.656250
543		95.703125
544		97.656250
545		95.703125
546		99.609375
547		97.656250
548		99.609375
549		97.656250
550		101.562500
551		97.656250
552		101.562500
553		97.656250
554		101.562500
555		97.656250
556		101.562500
557		99.609375
558		101.562500
559		97.656250
560		101.562500
561		97.656250
562		101.562500
563		97.656250
564		101.562500
565		97.656250
566		101.562500
567		97.656250
568		101.562500
569		95.703125
570		99.609375
571		95.703125
572		99.609375
573		93.750000
574		97.656250
575		91.796875
576		95.703125
577		91.796875
578		93.750000
579		89.843750
580		93.750000
581		87.890625
582		91.796875
583		85.937500
584		89.843750
585		83.984375
586		87.890625
587		80.078125
588		85.937500
589		78.125000
590		82.031250
591		76.171875
592		80.078125
593		72.265625
594		78.125000
595		70.312500
596		76.171875
597		66.406250
598		72.265625
599		64.453125
600		68.359375
601		60.546875
602		64.453125
603		54.687500
604		62.500000
605		52.734375
606		58.593750
607		48.828125
608		54.687500
609		44.921875
610		50.781250
611		42.968750
612		48.828125
613		37.109375
614		42.968750
615		33.203125
616		39.062500
617		29.296875
618		35.156250
619		25.390625
620		31.250000
621		21.484375
622		27.343750
623		15.625000
624		21.484375
625		11.718750
626		17.578125
627		7.812500
628		13.671875
629		1.953125
630		9.765625
631		0.000000
632		3.906250
633		-5.859375
634		0.000000
635		-9.765625
636		-3.906250
637		-13.671875
638		-7.812500
639		-19.531250
640		-13.671875
641		-23.437500
642		-17.578125
643		-27.343750
644		-21.484375
645		-33.203125
646		-25.390625
647		-35.156250
648		-29.296875
649		-41.015625
650		-35.156250
651		-44.921875
652		-39.062500
653		-48.828125
654		-42.968750
655		-52.734375
656		-46.875000
657		-56.640625
658		-50.781250
659		-60.546875
660		-54.687500
661		-62.500000
662		-58.593750
663		-66.406250
664		-62.500000
665		-70.312500
666		-64.453125
667		-72.265625
668		-68.359375
669		-76.171875
670		-72.265625
671		-80.078125
672		-74.218750
673		-82.031250
674		-78.125000
675		-83.984375
676		-80.078125
677		-85.937500
678		-80.078125
679		-87.890625
680		-83.984375
681		-89.843750
682		-85.937500
683		-91.796875
684		-87.890625
685		-93.750000
686		-89.843750
687		-95.703125
688		-91.796875
689		-95.703125
690		-91.796875
691		-95.703125
692		-93.750000
693		-97.656250
694		-93.750000
695		-97.656250
696		-93.750000
697		-97.656250
698		-95.703125
699		-97.656250
700		-95.703125
701		-97.656250
702		-95.703125
703		-97.656250
704		-93.750000
705		-97.656250
706		-93.750000
707		-95.703125
708		-93.750000
709		-95.703125
710		-89.843750
711		-95.703125
712		-87.890625
713		-91.796875
714		-89.843750
715		-89.843750
716		-85.937500
717		-89.843750
718		-83.984375
719		-87.890625
720		-82.031250
721		-85.937500
722		-80.078125
723		-82.031250
724		-78.125000
725		-80.078125
726		-76.171875
727		-78.125000
728		-70.312500
729		-76.171875
730		-70.312500
731		-72.265625
732		-66.406250
733		-68.359375
734		-62.500000
735		-64.453125
736		-58.593750
737		-60.546875
738		-54.687500
739		-58.593750
740		-52.734375
741		-52.734375
742		-48.828125
743		-48.828125
744		-41.015625
745		-48.828125
746		-39.062500
747		-42.968750
748		-33.203125
749		-39.062500
750		-31.250000
751		-35.156250
752		-27.343750
753		-29.296875
754		-23.437500
755		-25.390625
756		-19.531250
757		-19.531250
758		-13.671875
759		-15.625000
760		-9.765625
761		-13.671875
762		-3.906250
763		-7.812500
764		0.000000
765		-1.953125
766		3.906250
767		1.953125
768		9.765625
769		5.859375
770		13.671875
771		9.765625
772		17.578125
773		15.625000
774		21.484375
775		19.531250
776		25.390625
777		23.437500
778		31.250000
779		25.390625
780		35.156250
781		31.250000
782		39.062500
783		35.156250
784		42.968750
785		39.062500
786		46.875000
787		44.921875
788		50.781250
789		46.875000
790		52.734375
791		52.734375
792		56.640625
793		56.640625
794		62.500000
795		56.640625
796		66.406250
797		60.546875
798		68.359375
799		64.453125
800		72.265625
801		66.406250
802		74.218750
803		70.312500
804		78.125000
805		72.265625
806		80.078125
807		78.125000
808		82.031250
809		80.078125
810		83.984375
811		82.031250
812		87.890625
813		82.031250
814		89.843750
815		83.984375
816		91.796875
817		85.937500
818		93.750000
819		89.843750
820		95.703125
821		89.843750
822		97.656250
823		91.796875
824		97.656250
825		95.703125
826		97.656250
827		95.703125
828		99.609375
829		95.703125
830		101.562500
831		95.703125
832		103.515625
833		95.703125
834		103.515625
835		97.656250
836		103.515625
837		97.656250
838		103.515625
839		97.656250
840		103.515625
841		99.609375
842		101.562500
843		99.609375
844		101.562500
845		97.656250
846		103.515625
847		95.703125
848		103.515625
849		95.703125
850		101.562500
851		93.750000
852		101.562500
853		93.750000
854		99.609375
855		91.796875
856		99.609375
857		93.750000
858		95.703125
859		91.796875
860		93.750000
861		87.890625
862		93.750000
863		85.937500
864		93.750000
865		83.984375
866		91.796875
867		82.031250
868		89.843750
869		78.125000
870		87.890625
871		76.171875
872		85.937500
873		76.171875
874		82.031250
875		74.218750
876		78.125000
877		70.312500
878		74.218750
879		66.406250
880		74.218750
881		64.453125
882		70.312500
883		60.546875
884		66.406250
885		56.640625
886		64.453125
887		52.734375
888		60.546875
889		48.828125
890		56.640625
891		46.875000
892		52.734375
893		42.968750
894		48.828125
895		35.156250
896		44.921875
897		33.203125
898		41.015625
899		29.296875
900		37.109375
901		25.390625
902		35.156250
903		19.531250
904		29.296875
905		15.625000
906		25.390625
907		13.671875
908		21.484375
909		9.765625
910		13.671875
911		1.953125
912		9.765625
913		-1.953125
914		7.812500
915		-7.812500
916		1.953125
917		-11.718750
918		0.000000
919		-15.625000
920		-5.859375
921		-19.531250
922		-9.765625
923		-23.437500
924		-15.625000
925		-25.390625
926		-21.484375
927		-31.250000
928		-25.390625
929		-37.109375
930		-27.343750
931		-41.015625
932		-31.250000
933		-44.921875
934		-37.109375
935		-48.828125
936		-41.015625
937		-54.687500
938		-44.921875
939		-56.640625
940		-46.875000
941		-58.593750
942		-50.781250
943		-62.500000
944		-56.640625
945		-66.406250
946		-60.546875
947		-72.265625
948		-62.500000
949		-74.218750
950		-66.406250
951		-76.171875
952		-68.359375
953		-80.078125
954		-72.265625
955		-83.984375
956		-74.218750
957		-83.984375
958		-76.171875
959		-83.984375
960		-82.031250
961		-87.890625
962		-82.031250
963		-89.843750
964		-82.031250
965		-93.750000
966		-85.937500
967		-93.750000
968		-85.937500
969		-95.703125
970		-87.890625
971		-97.656250
972		-89.843750
973		-97.656250
974		-89.843750
975		-97.656250
976		-93.750000
977		-95.703125
978		-93.750000
979		-97.656250
980		-91.796875
981		-99.609375
982		-91.796875
983		-97.656250
984		-91.796875
985		-97.656250
986		-91.796875
987		-97.656250
988		-91.796875
989		-97.656250
990		-89.843750
991		-95.703125
992		-89.843750
993		-91.796875
994		-89.843750
995		-91.796875
996		-85.937500
997		-91.796875
998		-83.984375
999		-89.843750
1000		-82.031250
1001		-87.890625
1002		-80.078125
1003		-85.937500
1004		-78.125000
1005		-83.984375
1006		-76.171875
1007		-82.031250
1008		-74.218750
1009		-76.171875
1010		-72.265625
1011		-72.265625
1012		-68.359375
1013		-72.265625
1014		-64.453125
1015		-68.359375
1016		-60.546875
1017		-66.406250
1018		-56.640625
1019		-62.500000
1020		-54.687500
1021		-58.593750
1022		-48.828125
1023		-54.687500
1024		-44.921875
1025		-50.781250
1026		-42.968750
1027		-44.921875
1028		-39.062500
1029		-41.015625
1030		-33.203125
1031		-39.062500
1032		-29.296875
1033		-35.156250
1034		-25.390625
1035		-31.250000
1036		-21.484375
1037		-27.343750
1038		-17.578125
1039		-21.484375
1040		-11.718750
1041		-17.578125
1042		-9.765625
1043		-11.718750
1044		-3.906250
1045		-5.859375
1046		0.000000
1047		-3.906250
1048		5.859375
1049		0.000000
1050		9.765625
1051		3.906250
1052		13.671875
1053		7.812500
1054		19.531250
1055		13.671875
1056		23.437500
1057		17.578125
1058		27.343750
1059		23.437500
1060		29.296875
1061		29.296875
1062		35.156250
1063		31.250000
1064		39.062500
1065		35.156250
1066		42.968750
1067		39.062500
1068		48.828125
1069		42.968750
1070		50.781250
1071		46.875000
1072		54.687500
1073		50.781250
1074		58.593750
1075		52.734375
1076		60.546875
1077		58.593750
1078		64.453125
1079		62.500000
1080		68.359375
1081		64.453125
1082		72.265625
1083		66.406250
1084		74.218750
1085		70.312500
1086		78.125000
1087		72.265625
1088		80.078125
1089		74.218750
1090		82.031250
1091		78.125000
1092		85.937500
1093		82.031250
1094		85.937500
1095		83.984375
1096		87.890625
1097		83.984375
1098		91.796875
1099		85.937500
1100		93.750000
1101		87.890625
1102		97.656250
1103		89.843750
1104		97.656250
1105		91.796875
1106		99.609375
1107		93.750000
1108		99.609375
1109		93.750000
1110		99.609375
1111		97.656250
1112		99.609375
1113		95.703125
1114		103.515625
1115		95.703125
1116		103.515625
1117		97.656250
1118		103.515625
1119		95.703125
1120		103.515625
1121		97.656250
1122		103.515625
1123		97.656250
1124		103.515625
1125		97.656250
1126		103.515625
1127		99.609375
1128		101.562500
1129		97.656250
1130		101.562500
1131		95.703125
1132		103.515625
1133		95.703125
1134		101.562500
1135		93.750000
1136		101.562500
1137		93.750000
1138		99.609375
1139		91.796875
1140		97.656250
1141		89.843750
1142		97.656250
1143		89.843750
1144		93.750000
1145		87.890625
1146		91.796875
1147		83.984375
1148		91.796875
1149		82.031250
1150		89.843750
1151		80.078125
1152		87.890625
1153		78.125000
1154		83.984375
1155		74.218750
1156		83.984375
1157		72.265625
1158		80.078125
1159		70.312500
1160		78.125000
1161		68.359375
1162		72.265625
1163		62.500000
1164		70.312500
1165		60.546875
1166		68.359375
1167		56.640625
1168		64.453125
1169		52.734375
1170		62.500000
1171		48.828125
1172		58.593750
1173		44.921875
1174		54.687500
1175		42.968750
1176		50.781250
1177		39.062500
1178		44.921875
1179		35.156250
1180		41.015625
1181		29.296875
1182		37.109375
1183		25.390625
1184		35.156250
1185		21.484375
1186		31.250000
1187		15.625000
1188		27.343750
1189		11.718750
1190		21.484375
1191		7.812500
1192		17.578125
1193		3.906250
1194		13.671875
1195		0.000000
1196		5.859375
1197		-5.859375
1198		1.953125
1199		-9.765625
1200		0.000000
1201		-15.625000
1202		-5.859375
1203		-19.531250
1204		-9.765625
1205		-23.437500
1206		-13.671875
1207		-27.343750
1208		-19.531250
1209		-31.250000
1210		-21.484375
1211		-35.156250
1212		-29.296875
1213		-39.062500
1214		-33.203125
1215		-44.921875
1216		-35.156250
1217		-48.828125
1218		-39.062500
1219		-52.734375
1220		-42.968750
1221		-56.640625
1222		-46.875000
1223		-58.593750
1224		-50.781250
1225		-64.453125
1226		-54.687500
1227		-64.453125
1228		-60.546875
1229		-68.359375
1230		-64.453125
1231		-74.218750
1232		-66.406250
1233		-76.171875
1234		-68.359375
1235		-78.125000
1236		-70.312500
1237		-82.031250
1238		-74.218750
1239		-83.984375
1240		-76.171875
1241		-85.937500
1242		-78.125000
1243		-87.890625
1244		-80.078125
1245		-87.890625
1246		-85.937500
1247		-93.750000
1248		-85.937500
1249		-93.750000
1250		-85.937500
1251		-95.703125
1252		-87.890625
1253		-95.703125
1254		-89.843750
1255		-97.656250
1256		-89.843750
1257		-97.656250
1258		-91.796875
1259		-99.609375
1260		-91.796875
1261		-97.656250
1262		-93.750000
1263		-95.703125
1264		-93.750000
1265		-99.609375
1266		-91.796875
1267		-97.656250
1268		-91.796875
1269		-97.656250
1270		-91.796875
1271		-97.656250
1272		-89.843750
1273		-95.703125
1274		-89.843750
1275		-95.703125
1276		-87.890625
1277		-93.750000
1278		-87.890625
1279		-89.843750
1280		-85.937500
1281		-89.843750
1282		-83.984375
1283		-87.890625
1284		-80.078125
1285		-87.890625
1286		-78.125000
1287		-83.984375
1288		-76.171875
1289		-82.031250
1290		-72.265625
1291		-78.125000
1292		-70.312500
1293		-76.171875
1294		-68.359375
1295		-70.312500
1296		-66.406250
1297		-68.359375
1298		-62.500000
1299		-66.406250
1300		-58.593750
1301		-62.500000
1302		-54.687500
1303		-60.546875
1304		-48.828125
1305		-54.687500
1306		-46.875000
1307		-52.734375
1308		-42.968750
1309		-48.828125
1310		-39.062500
1311		-41.015625
1312		-37.109375
1313		-37.109375
1314		-31.250000
1315		-33.203125
1316		-25.390625
1317		-31.250000
1318		-21.484375
1319		-27.343750
1320		-17.578125
1321		-21.484375
1322		-11.718750
1323		-17.578125
1324		-7.812500
1325		-13.671875
1326		-3.906250
1327		-9.765625
1328		-1.953125
1329		-1.953125
1330		3.906250
1331		1.953125
1332		9.765625
1333		3.906250
1334		13.671875
1335		7.812500
1336		19.531250
1337		11.718750
1338		23.437500
1339		17.578125
1340		27.343750
1341		21.484375
1342		31.250000
1343		25.390625
1344		35.156250
1345		33.203125
1346		37.109375
1347		37.109375
1348		41.015625
1349		39.062500
1350		46.875000
1351		41.015625
1352		50.781250
1353		44.921875
1354		54.687500
1355		48.828125
1356		58.593750
1357		52.734375
1358		62.500000
1359		56.640625
1360		66.406250
1361		60.546875
1362		66.406250
1363		66.406250
1364		70.312500
1365		68.359375
1366		74.218750
1367		70.312500
1368		78.125000
1369		72.265625
1370		80.078125
1371		76.171875
1372		83.984375
1373		76.171875
1374		85.937500
1375		80.078125
1376		87.890625
1377		82.031250
1378		89.843750
1379		85.937500
1380		89.843750
1381		87.890625
1382		91.796875
1383		87.890625
1384		95.703125
1385		89.843750
1386		97.656250
1387		91.796875
1388		99.609375
1389		93.750000
1390		99.609375
1391		93.750000
1392		101.562500
1393		95.703125
1394		101.562500
1395		97.656250
1396		101.562500
1397		99.609375
1398		101.562500
1399		97.656250
1400		103.515625
1401		97.656250
1402		105.468750
1403		97.656250
1404		105.468750
1405		97.656250
1406		105.468750
1407		97.656250
1408		105.468750
1409		97.656250
1410		105.468750
1411		97.656250
1412		103.515625
1413		99.609375
1414		101.562500
1415		95.703125
1416		101.562500
1417		93.750000
1418		101.562500
1419		93.750000
1420		101.562500
1421		91.796875
1422		99.609375
1423		91.796875
1424		99.609375
1425		89.843750
1426		97.656250
1427		87.890625
1428		93.750000
1429		87.890625
1430		91.796875
1431		85.937500
1432		89.843750
1433		80.078125
1434		87.890625
1435		78.125000
1436		85.937500
1437		76.171875
1438		83.984375
1439		74.218750
1440		82.031250
1441		70.312500
1442		78.125000
1443		68.359375
1444		76.171875
1445		66.406250
1446		72.265625
1447		62.500000
1448		68.359375
1449		58.593750
1450		64.453125
1451		54.687500
1452		62.500000
1453		48.828125
1454		58.593750
1455		46.875000
1456		54.687500
1457		42.968750
1458		50.781250
1459		39.062500
1460		48.828125
1461		37.109375
1462		42.968750
1463		33.203125
1464		39.062500
1465		29.296875
1466		33.203125
1467		23.437500
1468		31.250000
1469		17.578125
1470		27.343750
1471		13.671875
1472		23.437500
1473		9.765625
1474		17.578125
1475		3.906250
1476		13.671875
1477		0.000000
1478		9.765625
1479		-1.953125
1480		3.906250
1481		-7.812500
1482		0.000000
1483		-13.671875
1484		-5.859375
1485		-17.578125
1486		-7.812500
1487		-21.484375
1488		-11.718750
1489		-25.390625
1490		-17.578125
1491		-31.250000
1492		-21.484375
1493		-35.156250
1494		-25.390625
1495		-37.109375
1496		-29.296875
1497		-41.015625
1498		-35.156250
1499		-46.875000
1500		-41.015625
1501		-50.781250
1502		-41.015625
1503		-54.687500
1504		-44.921875
1505		-58.593750
1506		-50.781250
1507		-62.500000
1508		-52.734375
1509		-64.453125
1510		-56.640625
1511		-68.359375
1512		-60.546875
1513		-70.312500
1514		-66.406250
1515		-72.265625
1516		-68.359375
1517		-78.125000
1518		-70.312500
1519		-80.078125
1520		-72.265625
1521		-83.984375
1522		-76.171875
1523		-85.937500
1524		-78.125000
1525		-87.890625
1526		-80.078125
1527		-89.843750
1528		-82.031250
1529		-89.843750
1530		-83.984375
1531		-91.796875
1532		-87.890625
1533		-93.750000
1534		-87.890625
1535		-95.703125
1536		-87.890625
1537		-95.703125
1538		-89.843750
1539		-97.656250
1540		-89.843750
1541		-97.656250
1542		-89.843750
1543		-97.656250
1544		-91.796875
1545		-97.656250
1546		-91.796875
1547		-95.703125
1548		-93.750000
1549		-95.703125
1550		-93.750000
1551		-97.656250
1552		-89.843750
1553		-95.703125
1554		-89.843750
1555		-95.703125
1556		-87.890625
1557		-93.750000
1558		-85.937500
1559		-93.750000
1560		-85.937500
1561		-91.796875
1562		-83.984375
1563		-89.843750
1564		-83.984375
1565		-85.937500
1566		-82.031250
1567		-83.984375
1568		-78.125000
1569		-83.984375
1570		-76.171875
1571		-80.078125
1572		-72.265625
1573		-78.125000
1574		-70.312500
1575		-74.218750
1576		-66.406250
1577		-72.265625
1578		-64.453125
1579		-70.312500
1580		-62.500000
1581		-64.453125
1582		-58.593750
1583		-60.546875
1584		-54.687500
1585		-58.593750
1586		-48.828125
1587		-54.687500
1588		-46.875000
1589		-50.781250
1590		-42.968750
1591		-46.875000
1592		-37.109375
1593		-44.921875
1594		-33.203125
1595		-39.062500
1596		-29.296875
1597		-33.203125
1598		-27.343750
1599		-29.296875
1600		-23.437500
1601		-25.390625
1602		-17.578125
1603		-21.484375
1604		-11.718750
1605		-17.578125
1606		-7.812500
1607		-13.671875
1608		-3.906250
1609		-7.812500
1610		0.000000
1611		-3.906250
1612		5.859375
1613		0.000000
1614		7.812500
1615		5.859375
1616		11.718750
1617		11.718750
1618		17.578125
1619		13.671875
1620		23.437500
1621		17.578125
1622		27.343750
1623		21.484375
1624		31.250000
1625		25.390625
1626		35.156250
1627		29.296875
1628		39.062500
1629		35.156250
1630		42.968750
1631		41.015625
1632		44.921875
1633		44.921875
1634		48.828125
1635		46.875000
1636		54.687500
1637		50.781250
1638		58.593750
1639		52.734375
1640		62.500000
1641		56.640625
1642		66.406250
1643		58.593750
1644		68.359375
1645		64.453125
1646		72.265625
1647		66.406250
1648		74.218750
1649		70.312500
1650		76.171875
1651		74.218750
1652		80.078125
1653		76.171875
1654		83.984375
1655		78.125000
1656		85.937500
1657		80.078125
1658		87.890625
1659		82.031250
1660		89.843750
1661		83.984375
1662		91.796875
1663		85.937500
1664		93.750000
1665		89.843750
1666		93.750000
1667		91.796875
1668		97.656250
1669		91.796875
1670		99.609375
1671		93.750000
1672		99.609375
1673		93.750000
1674		101.562500
1675		95.703125
1676		101.562500
1677		95.703125
1678		103.515625
1679		97.656250
1680		103.515625
1681		99.609375
1682		101.562500
1683		99.609375
1684		103.515625
1685		97.656250
1686		105.468750
1687		97.656250
1688		105.468750
1689		97.656250
1690		105.468750
1691		97.656250
1692		105.468750
1693		97.656250
1694		103.515625
1695		95.703125
1696		103.515625
1697		97.656250
1698		103.515625
1699		97.656250
1700		99.609375
1701		93.750000
1702		99.609375
1703		91.796875
1704		99.609375
1705		91.796875
1706		99.609375
1707		89.843750
1708		97.656250
1709		87.890625
1710		95.703125
1711		85.937500
1712		93.750000
1713		83.984375
1714		91.796875
1715		83.984375
1716		87.890625
1717		80.078125
1718		85.937500
1719		76.171875
1720		82.031250
1721		74.218750
1722		80.078125
1723		70.312500
1724		78.125000
1725		68.359375
1726		76.171875
1727		64.453125
1728		72.265625
1729		62.500000
1730		68.359375
1731		60.546875
1732		64.453125
1733		56.640625
1734		60.546875
1735		50.781250
1736		58.593750
1737		46.875000
1738		54.687500
1739		42.968750
1740		52.734375
1741		39.062500
1742		48.828125
1743		35.156250
1744		44.921875
1745		31.250000
1746		41.015625
1747		29.296875
1748		37.109375
1749		25.390625
1750		31.250000
1751		19.531250
1752		25.390625
1753		13.671875
1754		23.437500
1755		9.765625
1756		19.531250
1757		3.906250
1758		15.625000
1759		0.000000
1760		11.718750
1761		-3.906250
1762		5.859375
1763		-7.812500
1764		1.953125
1765		-9.765625
1766		-5.859375
1767		-15.625000
1768		-9.765625
1769		-21.484375
1770		-13.671875
1771		-25.390625
1772		-17.578125
1773		-31.250000
1774		-21.484375
1775		-33.203125
1776		-25.390625
1777		-39.062500
1778		-29.296875
1779		-42.968750
1780		-33.203125
1781		-44.921875
1782		-37.109375
1783		-48.828125
1784		-42.968750
1785		-54.687500
1786		-46.875000
1787		-56.640625
1788		-48.828125
1789		-62.500000
1790		-52.734375
1791		-64.453125
1792		-56.640625
1793		-68.359375
1794		-58.593750
1795		-72.265625
1796		-62.500000
1797		-74.218750
1798		-66.406250
1799		-76.171875
1800		-72.265625
1801		-78.125000
1802		-74.218750
1803		-83.984375
1804		-76.171875
1805		-85.937500
1806		-76.171875
1807		-87.890625
1808		-80.078125
1809		-89.843750
1810		-82.031250
1811		-91.796875
1812		-83.984375
1813		-91.796875
1814		-85.937500
1815		-91.796875
1816		-85.937500
1817		-93.750000
1818		-89.843750
1819		-95.703125
1820		-89.843750
1821		-97.656250
1822		-89.843750
1823		-97.656250
1824		-89.843750
1825		-97.656250
1826		-89.843750
1827		-97.656250
1828		-91.796875
1829		-97.656250
1830		-91.796875
1831		-97.656250
1832		-91.796875
1833		-95.703125
1834		-91.796875
1835		-93.750000
1836		-89.843750
1837		-95.703125
1838		-87.890625
1839		-93.750000
1840		-87.890625
1841		-93.750000
1842		-85.937500
1843		-91.796875
1844		-83.984375
1845		-89.843750
1846		-82.031250
1847		-87.890625
1848		-80.078125
1849		-83.984375
1850		-80.078125
1851		-82.031250
1852		-76.171875
1853		-80.078125
1854		-72.265625
1855		-78.125000
1856		-70.312500
1857		-74.218750
1858		-68.359375
1859		-72.265625
1860		-64.453125
1861		-68.359375
1862		-60.546875
1863		-66.406250
1864		-56.640625
1865		-62.500000
1866		-56.640625
1867		-56.640625
1868		-50.781250
1869		-52.734375
1870		-44.921875
1871		-52.734375
1872		-42.968750
1873		-46.875000
1874		-39.062500
1875		-44.921875
1876		-35.156250
1877		-39.062500
1878		-29.296875
1879		-35.156250
1880		-25.390625
1881		-31.250000
1882		-21.484375
1883		-25.390625
1884		-19.531250
1885		-19.531250
1886		-15.625000
1887		-15.625000
1888		-7.812500
1889		-13.671875
1890		-3.906250
1891		-9.765625
1892		0.000000
1893		-3.906250
1894		3.906250
1895		0.000000
1896		9.765625
1897		3.906250
1898		13.671875
1899		7.812500
1900		15.625000
1901		15.625000
1902		21.484375
1903		19.531250
1904		27.343750
1905		21.484375
1906		31.250000
1907		25.390625
1908		35.156250
1909		29.296875
1910		39.062500
1911		35.156250
1912		42.968750
1913		39.062500
1914		46.875000
1915		42.968750
1916		48.828125
1917		48.828125
1918		52.734375
1919		52.734375
1920		56.640625
1921		52.734375
1922		62.500000
1923		56.640625
1924		64.453125
1925		58.593750
1926		68.359375
1927		64.453125
1928		72.265625
1929		66.406250
1930		76.171875
1931		70.312500
1932		78.125000
1933		74.218750
1934		78.125000
1935		78.125000
1936		82.031250
1937		80.078125
1938		85.937500
1939		80.078125
1940		87.890625
1941		82.031250
1942		89.843750
1943		83.984375
1944		91.796875
1945		85.937500
1946		93.750000
1947		87.890625
1948		95.703125
1949		91.796875
1950		97.656250
1951		93.750000
1952		97.656250
1953		95.703125
1954		99.609375
1955		93.750000
1956		101.562500
1957		95.703125
1958		103.515625
1959		97.656250
1960		103.515625
1961		97.656250
1962		103.515625
1963		97.656250
1964		105.468750
1965		99.609375
1966		105.468750
1967		101.562500
1968		103.515625
1969		99.609375
1970		103.515625
1971		97.656250
1972		105.468750
1973		97.656250
1974		105.468750
1975		97.656250
1976		105.468750
1977		97.656250
1978		103.515625
1979		95.703125
1980		103.515625
1981		95.703125
1982		103.515625
1983		95.703125
1984		101.562500
1985		95.703125
1986		97.656250
1987		91.796875
1988		97.656250
1989		89.843750
1990		97.656250
1991		87.890625
1992		95.703125
1993		85.937500
1994		93.750000
1995		83.984375
1996		91.796875
1997		82.031250
1998		89.843750
1999		80.078125
2000		87.890625
2001		80.078125
2002		83.984375
2003		76.171875
2004		80.078125
2005		70.312500
2006		80.078125
2007		68.359375
2008		76.171875
2009		66.406250
2010		74.218750
2011		62.500000
2012		70.312500
2013		58.593750
2014		68.359375
2015		54.687500
2016		64.453125
2017		52.734375
2018		58.593750
2019		50.781250
2020		54.687500
2021		44.921875
2022		50.781250
2023		41.015625
2024		48.828125
2025		37.109375
2026		44.921875
2027		31.250000
2028		42.968750
2029		27.343750
2030		37.109375
2031		23.437500
2032		33.203125
2033		21.484375
2034		29.296875
2035		17.578125
2036		23.437500
2037		11.718750
2038		17.578125
2039		5.859375
2040		15.625000
2041		1.953125
2042		11.718750
2043		-1.953125
2044		7.812500
2045		-5.859375
2046		1.953125
2047		-11.718750
2048		-1.953125
2049		-15.625000
2050		-5.859375
2051		-17.578125
2052		-13.671875
2053		-23.437500
2054		-15.625000
2055		-29.296875
2056		-19.531250
2057		-33.203125
2058		-23.437500
2059		-37.109375
2060		-27.343750
2061		-41.015625
2062		-33.203125
2063		-46.875000
2064		-35.156250
2065		-48.828125
2066		-41.015625
2067		-52.734375
2068		-44.921875
2069		-54.687500
2070		-50.781250
2071		-62.500000
2072		-54.687500
2073		-64.453125
2074		-54.687500
2075		-68.359375
2076		-58.593750
2077		-70.312500
2078		-62.500000
2079		-74.218750
2080		-66.406250
2081		-78.125000
2082		-68.359375
2083		-78.125000
2084		-72.265625
2085		-80.078125
2086		-76.171875
2087		-83.984375
2088		-78.125000
2089		-87.890625
2090		-78.125000
2091		-87.890625
2092		-82.031250
2093		-91.796875
2094		-83.984375
2095		-91.796875
2096		-83.984375
2097		-93.750000
2098		-85.937500
2099		-95.703125
2100		-87.890625
2101		-93.750000
2102		-89.843750
2103		-95.703125
2104		-91.796875
2105		-97.656250
2106		-91.796875
2107		-97.656250
2108		-91.796875
2109		-97.656250
2110		-91.796875
2111		-97.656250
2112		-91.796875
2113		-97.656250
2114		-91.796875
2115		-97.656250
2116		-89.843750
2117		-97.656250
2118		-89.843750
2119		-93.750000
2120		-89.843750
2121		-93.750000
2122		-87.890625
2123		-93.750000
2124		-85.937500
2125		-91.796875
2126		-83.984375
2127		-91.796875
2128		-82.031250
2129		-87.890625
2130		-80.078125
2131		-85.937500
2132		-78.125000
2133		-83.984375
2134		-76.171875
2135		-80.078125
2136		-76.171875
2137		-76.171875
2138		-72.265625
2139		-76.171875
2140		-66.406250
2141		-74.218750
2142		-64.453125
2143		-70.312500
2144		-62.500000
2145		-66.406250
2146		-58.593750
2147		-64.453125
2148		-54.687500
2149		-60.546875
2150		-50.781250
2151		-56.640625
2152		-48.828125
2153		-50.781250
2154		-44.921875
2155		-46.875000
2156		-39.062500
2157		-44.921875
2158		-35.156250
2159		-41.015625
2160		-31.250000
2161		-37.109375
2162		-27.343750
2163		-31.250000
2164		-23.437500
2165		-27.343750
2166		-17.578125
2167		-23.437500
2168		-15.625000
2169		-17.578125
2170		-11.718750
2171		-11.718750
2172		-5.859375
2173		-9.765625
2174		0.000000
2175		-5.859375
2176		3.906250
2177		-1.953125
2178		7.812500
2179		3.906250
2180		11.718750
2181		7.812500
2182		17.578125
2183		11.718750
2184		21.484375
2185		17.578125
2186		23.437500
2187		23.437500
2188		27.343750
2189		27.343750
2190		33.203125
2191		29.296875
2192		39.062500
2193		33.203125
2194		42.968750
2195		37.109375
2196		46.875000
2197		41.015625
2198		48.828125
2199		44.921875
2200		54.687500
2201		48.828125
2202		54.687500
2203		54.687500
2204		60.546875
2205		56.640625
2206		62.500000
2207		58.593750
2208		68.359375
2209		62.500000
2210		70.312500
2211		66.406250
2212		74.218750
2213		68.359375
2214		78.125000
2215		72.265625
2216		80.078125
2217		74.218750
2218		82.031250
2219		78.125000
2220		83.984375
2221		82.031250
2222		85.937500
2223		82.031250
2224		89.843750
2225		83.984375
2226		91.796875
2227		85.937500
2228		93.750000
2229		87.890625
2230		95.703125
2231		89.843750
2232		97.656250
2233		91.796875
2234		99.609375
2235		91.796875
2236		99.609375
2237		95.703125
2238		99.609375
2239		95.703125
2240		101.562500
2241		95.703125
2242		103.515625
2243		95.703125
2244		103.515625
2245		97.656250
2246		103.515625
2247		97.656250
2248		105.468750
2249		97.656250
2250		105.468750
2251		97.656250
2252		105.468750
2253		99.609375
2254		103.515625
2255		99.609375
2256		103.515625
2257		97.656250
2258		105.468750
2259		95.703125
2260		103.515625
2261		95.703125
2262		103.515625
2263		95.703125
2264		101.562500
2265		93.750000
2266		101.562500
2267		91.796875
2268		99.609375
2269		93.750000
2270		97.656250
2271		91.796875
2272		95.703125
2273		87.890625
2274		93.750000
2275		85.937500
2276		93.750000
2277		83.984375
2278		91.796875
2279		82.031250
2280		89.843750
2281		80.078125
2282		87.890625
2283		76.171875
2284		83.984375
2285		76.171875
2286		82.031250
2287		74.218750
2288		78.125000
2289		68.359375
2290		74.218750
2291		64.453125
2292		74.218750
2293		62.500000
2294		70.312500
2295		58.593750
2296		68.359375
2297		56.640625
2298		64.453125
2299		50.781250
2300		60.546875
2301		48.828125
2302		56.640625
2303		44.921875
2304		50.781250
2305		42.968750
2306		46.875000
2307		35.156250
2308		42.968750
2309		31.250000
2310		41.015625
2311		27.343750
2312		37.109375
2313		23.437500
2314		33.203125
2315		19.531250
2316		29.296875
2317		13.671875
2318		23.437500
2319		13.671875
2320		21.484375
2321		7.812500
2322		13.671875
2323		1.953125
2324		9.765625
2325		-3.906250
2326		7.812500
2327		-7.812500
2328		1.953125
2329		-11.718750
2330		-1.953125
2331		-17.578125
2332		-5.859375
2333		-21.484375
2334		-9.765625
2335		-23.437500
2336		-15.625000
2337		-27.343750
2338		-21.484375
2339		-31.250000
2340		-25.390625
2341		-37.109375
2342		-27.343750
2343		-41.015625
2344		-31.250000
2345		-46.875000
2346		-37.109375
2347		-48.828125
2348		-41.015625
2349		-54.687500
2350		-44.921875
2351		-58.593750
2352		-48.828125
2353		-58.593750
2354		-52.734375
2355		-62.500000
2356		-56.640625
2357		-68.359375
2358		-60.546875
2359		-72.265625
2360		-62.500000
2361		-74.218750
2362		-64.453125
2363		-78.125000
2364		-66.406250
2365		-80.078125
2366		-70.312500
2367		-82.031250
2368		-74.218750
2369		-83.984375
2370		-76.171875
2371		-85.937500
2372		-82.031250
2373		-87.890625
2374		-83.984375
2375		-89.843750
2376		-82.031250
2377		-93.750000
2378		-83.984375
2379		-93.750000
2380		-85.937500
2381		-95.703125
2382		-87.890625
2383		-95.703125
2384		-89.843750
2385		-97.656250
2386		-89.843750
2387		-95.703125
2388		-91.796875
2389		-95.703125
2390		-91.796875
2391		-97.656250
2392		-91.796875
2393		-97.656250
2394		-89.843750
2395		-97.656250
2396		-91.796875
2397		-97.656250
2398		-89.843750
2399		-95.703125
2400		-89.843750
2401		-95.703125
2402		-87.890625
2403		-93.750000
2404		-87.890625
2405		-91.796875
2406		-87.890625
2407		-91.796875
2408		-83.984375
2409		-89.843750
2410		-83.984375
2411		-89.843750
2412		-82.031250
2413		-85.937500
2414		-78.125000
2415		-83.984375
2416		-76.171875
2417		-82.031250
2418		-74.218750
2419		-78.125000
2420		-72.265625
2421		-74.218750
2422		-70.312500
2423		-72.265625
2424		-66.406250
2425		-70.312500
2426		-60.546875
2427		-66.406250
2428		-58.593750
2429		-64.453125
2430		-54.687500
2431		-60.546875
2432		-50.781250
2433		-56.640625
2434		-46.875000
2435		-52.734375
2436		-42.968750
2437		-48.828125
2438		-41.015625
2439		-42.968750
2440		-37.109375
2441		-39.062500
2442		-31.250000
2443		-37.109375
2444		-27.343750
2445		-33.203125
2446		-21.484375
2447		-27.343750
2448		-17.578125
2449		-23.437500
2450		-13.671875
2451		-19.531250
2452		-9.765625
2453		-13.671875
2454		-7.812500
2455		-7.812500
2456		-1.953125
2457		-3.906250
2458		3.906250
2459		0.000000
2460		9.765625
2461		3.906250
2462		11.718750
2463		7.812500
2464		17.578125
2465		11.718750
2466		21.484375
2467		15.625000
2468		25.390625
2469		21.484375
2470		29.296875
2471		27.343750
2472		31.250000
2473		31.250000
2474		37.109375
2475		35.156250
2476		42.968750
2477		37.109375
2478		46.875000
2479		41.015625
2480		50.781250
2481		44.921875
2482		52.734375
2483		48.828125
2484		58.593750
2485		52.734375
2486		62.500000
2487		56.640625
2488		62.500000
2489		60.546875
2490		66.406250
2491		64.453125
2492		70.312500
2493		64.453125
2494		74.218750
2495		68.359375
2496		78.125000
2497		72.265625
2498		80.078125
2499		74.218750
2500		82.031250
2501		76.171875
2502		85.937500
2503		80.078125
2504		87.890625
2505		83.984375
2506		87.890625
2507		85.937500
2508		89.843750
2509		85.937500
2510		95.703125
2511		87.890625
2512		95.703125
2513		89.843750
2514		97.656250
2515		91.796875
2516		99.609375
2517		93.750000
2518		99.609375
2519		93.750000
2520		101.562500
2521		95.703125
2522		101.562500
2523		99.609375
2524		101.562500
2525		97.656250
2526		103.515625
2527		97.656250
2528		105.468750
2529		97.656250
2530		105.468750
2531		97.656250
2532		105.468750
2533		97.656250
2534		105.468750
2535		97.656250
2536		105.468750
2537		97.656250
2538		105.468750
2539		99.609375
2540		103.515625
2541		99.609375
2542		101.562500
2543		95.703125
2544		103.515625
2545		95.703125
2546		101.562500
2547		93.750000
2548		101.562500
2549		93.750000
2550		99.609375
2551		91.796875
2552		99.609375
2553		89.843750
2554		97.656250
2555		89.843750
2556		93.750000
2557		87.890625
2558		91.796875
2559		83.984375
2560		91.796875
2561		82.031250
2562		89.843750
2563		80.078125
2564		87.890625
2565		78.125000
2566		85.937500
2567		74.218750
2568		83.984375
2569		72.265625
2570		80.078125
2571		70.312500
2572		78.125000
2573		68.359375
2574		72.265625
2575		62.500000
2576		70.312500
2577		58.593750
2578		68.359375
2579		54.687500
2580		64.453125
2581		52.734375
2582		60.546875
2583		48.828125
2584		58.593750
2585		44.921875
2586		54.687500
2587		41.015625
2588		50.781250
2589		39.062500
2590		44.921875
2591		35.156250
2592		41.015625
2593		29.296875
2594		37.109375
2595		25.390625
2596		33.203125
2597		21.484375
2598		31.250000
2599		15.625000
2600		25.390625
2601		11.718750
2602		21.484375
2603		5.859375
2604		17.578125
2605		3.906250
2606		11.718750
2607		0.000000
2608		5.859375
2609		-5.859375
2610		1.953125
2611		-11.718750
2612		0.000000
2613		-15.625000
2614		-5.859375
2615		-19.531250
2616		-9.765625
2617		-23.437500
2618		-13.671875
2619		-29.296875
2620		-19.531250
2621		-31.250000
2622		-23.437500
2623		-35.156250
2624		-29.296875
2625		-39.062500
2626		-33.203125
2627		-44.921875
2628		-37.109375
2629		-48.828125
2630		-39.062500
2631		-52.734375
2632		-42.968750
2633		-56.640625
2634		-46.875000
2635		-60.546875
2636		-50.781250
2637		-64.453125
2638		-54.687500
2639		-66.406250
2640		-60.546875
2641		-68.359375
2642		-64.453125
2643		-72.265625
2644		-66.406250
2645		-76.171875
2646		-68.359375
2647		-80.078125
2648		-70.312500
2649		-82.031250
2650		-74.218750
2651		-83.984375
2652		-76.171875
2653		-85.937500
2654		-78.125000
2655		-87.890625
2656		-80.078125
2657		-87.890625
2658		-85.937500
2659		-91.796875
2660		-85.937500
2661		-93.750000
2662		-85.937500
2663		-95.703125
2664		-87.890625
2665		-97.656250
2666		-89.843750
2667		-97.656250
2668		-89.843750
2669		-97.656250
2670		-89.843750
2671		-97.656250
2672		-91.796875
2673		-95.703125
2674		-93.750000
2675		-95.703125
2676		-93.750000
2677		-97.656250
2678		-91.796875
2679		-97.656250
2680		-91.796875
2681		-97.656250
2682		-89.843750
2683		-95.703125
2684		-89.843750
2685		-95.703125
2686		-87.890625
2687		-93.750000
2688		-85.937500
2689		-91.796875
2690		-85.937500
2691		-89.843750
2692		-85.937500
2693		-87.890625
2694		-82.031250
2695		-87.890625
2696		-80.078125
2697		-85.937500
2698		-76.171875
2699		-83.984375
2700		-74.218750
2701		-80.078125
2702		-72.265625
2703		-78.125000
2704		-68.359375
2705		-74.218750
2706		-66.406250
2707		-70.312500
2708		-64.453125
2709		-66.406250
2710		-60.546875
2711		-64.453125
2712		-56.640625
2713		-60.546875
2714		-50.781250
2715		-58.593750
2716		-48.828125
2717		-54.687500
2718		-44.921875
2719		-50.781250
2720		-41.015625
2721		-44.921875
2722		-37.109375
2723		-41.015625
2724		-33.203125
2725		-35.156250
2726		-29.296875
2727		-31.250000
2728		-23.437500
2729		-29.296875
2730		-19.531250
2731		-25.390625
2732		-15.625000
2733		-21.484375
2734		-9.765625
2735		-15.625000
2736		-5.859375
2737		-11.718750
2738		-1.953125
2739		-7.812500
2740		1.953125
2741		0.000000
2742		5.859375
2743		3.906250
2744		11.718750
2745		5.859375
2746		15.625000
2747		9.765625
2748		21.484375
2749		15.625000
2750		25.390625
2751		19.531250
2752		29.296875
2753		23.437500
2754		33.203125
2755		27.343750
2756		37.109375
2757		33.203125
2758		39.062500
2759		37.109375
2760		42.968750
2761		41.015625
2762		48.828125
2763		42.968750
2764		52.734375
2765		46.875000
2766		56.640625
2767		50.781250
2768		60.546875
2769		54.687500
2770		62.500000
2771		58.593750
2772		66.406250
2773		60.546875
2774		68.359375
2775		66.406250
2776		72.265625
2777		70.312500
2778		76.171875
2779		70.312500
2780		78.125000
2781		74.218750
2782		82.031250
2783		76.171875
2784		83.984375
2785		78.125000
2786		85.937500
2787		82.031250
2788		89.843750
2789		82.031250
2790		89.843750
2791		87.890625
2792		91.796875
2793		89.843750
2794		93.750000
2795		89.843750
2796		97.656250
2797		89.843750
2798		97.656250
2799		91.796875
2800		99.609375
2801		93.750000
2802		99.609375
2803		93.750000
2804		101.562500
2805		95.703125
2806		101.562500
2807		97.656250
2808		101.562500
2809		99.609375
2810		101.562500
2811		97.656250
2812		103.515625
2813		97.656250
2814		103.515625
2815		97.656250
2816		105.468750
2817		97.656250
2818		105.468750
2819		97.656250
2820		105.468750
2821		97.656250
2822		103.515625
2823		97.656250
2824		103.515625
2825		97.656250
2826		101.562500
2827		95.703125
2828		101.562500
2829		93.750000
2830		101.562500
2831		91.796875
2832		99.609375
2833		91.796875
2834		99.609375
2835		89.843750
2836		97.656250
2837		87.890625
2838		95.703125
2839		85.937500
2840		93.750000
2841		85.937500
2842		89.843750
2843		83.984375
2844		87.890625
2845		80.078125
2846		87.890625
2847		78.125000
2848		85.937500
2849		74.218750
2850		82.031250
2851		72.265625
2852		80.078125
2853		68.359375
2854		78.125000
2855		66.406250
2856		74.218750
2857		64.453125
2858		72.265625
2859		60.546875
2860		66.406250
2861		56.640625
2862		62.500000
2863		52.734375
2864		60.546875
2865		48.828125
2866		56.640625
2867		44.921875
2868		54.687500
2869		41.015625
2870		50.781250
2871		37.109375
2872		46.875000
2873		35.156250
2874		42.968750
2875		31.250000
2876		37.109375
2877		27.343750
2878		33.203125
2879		21.484375
2880		29.296875
2881		15.625000
2882		25.390625
2883		11.718750
2884		21.484375
2885		5.859375
2886		17.578125
2887		1.953125
2888		11.718750
2889		-1.953125
2890		7.812500
2891		-3.906250
2892		1.953125
2893		-7.812500
2894		-1.953125
2895		-15.625000
2896		-7.812500
2897		-19.531250
2898		-9.765625
2899		-23.437500
2900		-13.671875
2901		-29.296875
2902		-17.578125
2903		-33.203125
2904		-23.437500
2905		-35.156250
2906		-27.343750
2907		-39.062500
2908		-31.250000
2909		-42.968750
2910		-37.109375
2911		-48.828125
2912		-41.015625
2913		-52.734375
2914		-42.968750
2915		-56.640625
2916		-46.875000
2917		-60.546875
2918		-50.781250
2919		-64.453125
2920		-54.687500
2921		-66.406250
2922		-58.593750
2923		-70.312500
2924		-62.500000
2925		-72.265625
2926		-66.406250
2927		-74.218750
2928		-70.312500
2929		-78.125000
2930		-72.265625
2931		-82.031250
2932		-74.218750
2933		-83.984375
2934		-76.171875
2935		-85.937500
2936		-78.125000
2937		-89.843750
2938		-80.078125
2939		-89.843750
2940		-83.984375
2941		-91.796875
2942		-83.984375
2943		-91.796875
2944		-87.890625
2945		-95.703125
2946		-87.890625
2947		-95.703125
2948		-89.843750
2949		-97.656250
2950		-89.843750
2951		-97.656250
2952		-89.843750
2953		-97.656250
2954		-91.796875
2955		-97.656250
2956		-91.796875
2957		-97.656250
2958		-91.796875
2959		-95.703125
2960		-93.750000
2961		-95.703125
2962		-93.750000
2963		-97.656250
2964		-89.843750
2965		-95.703125
2966		-87.890625
2967		-95.703125
2968		-87.890625
2969		-93.750000
2970		-85.937500
2971		-93.750000
2972		-85.937500
2973		-91.796875
2974		-83.984375
2975		-87.890625
2976		-83.984375
2977		-85.937500
2978		-82.031250
2979		-83.984375
2980		-78.125000
2981		-82.031250
2982		-74.218750
2983		-80.078125
2984		-72.265625
2985		-76.171875
2986		-68.359375
2987		-74.218750
2988		-66.406250
2989		-70.312500
2990		-62.500000
2991		-66.406250
2992		-60.546875
2993		-62.500000
2994		-58.593750
2995		-58.593750
2996		-52.734375
2997		-56.640625
2998		-48.828125
2999		-54.687500
3000		-44.921875
3001		-50.781250
3002		-39.062500
3003		-44.921875
3004		-37.109375
3005		-42.968750
3006		-33.203125
3007		-37.109375
3008		-29.296875
3009		-31.250000
3010		-25.390625
3011		-27.343750
3012		-21.484375
3013		-23.437500
3014		-15.625000
3015		-19.531250
3016		-11.718750
3017		-15.625000
3018		-5.859375
3019		-11.718750
3020		-1.953125
3021		-7.812500
3022		1.953125
3023		-1.953125
3024		7.812500
3025		3.906250
3026		9.765625
3027		7.812500
3028		13.671875
3029		11.718750
3030		19.531250
3031		13.671875
3032		25.390625
3033		19.531250
3034		29.296875
3035		23.437500
3036		33.203125
3037		27.343750
3038		37.109375
3039		31.250000
3040		41.015625
3041		37.109375
3042		44.921875
3043		41.015625
3044		46.875000
3045		44.921875
3046		50.781250
3047		46.875000
3048		56.640625
3049		50.781250
3050		60.546875
3051		54.687500
3052		64.453125
3053		58.593750
3054		66.406250
3055		60.546875
3056		70.312500
3057		64.453125
3058		74.218750
3059		66.406250
3060		74.218750
3061		72.265625
3062		78.125000
3063		76.171875
3064		82.031250
3065		76.171875
3066		85.937500
3067		78.125000
3068		87.890625
3069		82.031250
3070		89.843750
3071		83.984375
3072		91.796875
3073		85.937500
3074		93.750000
3075		87.890625
3076		93.750000
3077		91.796875
3078		93.750000
3079		93.750000
3080		97.656250
3081		91.796875
3082		99.609375
3083		93.750000
3084		101.562500
3085		95.703125
3086		101.562500
3087		95.703125
3088		103.515625
3089		97.656250
3090		103.515625
3091		97.656250
3092		103.515625
3093		99.609375
3094		101.562500
3095		99.609375
3096		103.515625
3097		97.656250
3098		105.468750
3099		97.656250
3100		105.468750
3101		97.656250
3102		105.468750
3103		97.656250
3104		103.515625
3105		97.656250
3106		103.515625
3107		95.703125
3108		103.515625
3109		95.703125
3110		101.562500
3111		95.703125
3112		99.609375
3113		91.796875
3114		99.609375
3115		91.796875
3116		99.609375
3117		89.843750
3118		97.656250
3119		87.890625
3120		95.703125
3121		85.937500
3122		93.750000
3123		83.984375
3124		91.796875
3125		83.984375
3126		89.843750
3127		82.031250
3128		85.937500
3129		80.078125
3130		83.984375
3131		74.218750
3132		83.984375
3133		72.265625
3134		80.078125
3135		68.359375
3136		78.125000
3137		66.406250
3138		74.218750
3139		62.500000
3140		72.265625
3141		60.546875
3142		68.359375
3143		58.593750
3144		66.406250
3145		54.687500
3146		60.546875
3147		48.828125
3148		56.640625
3149		44.921875
3150		54.687500
3151		41.015625
3152		50.781250
3153		37.109375
3154		46.875000
3155		33.203125
3156		42.968750
3157		29.296875
3158		37.109375
3159		27.343750
3160		33.203125
3161		21.484375
3162		27.343750
3163		17.578125
3164		23.437500
3165		11.718750
3166		23.437500
3167		7.812500
3168		17.578125
3169		1.953125
3170		13.671875
3171		-1.953125
3172		7.812500
3173		-5.859375
3174		3.906250
3175		-9.765625
3176		-1.953125
3177		-11.718750
3178		-7.812500
3179		-17.578125
3180		-11.718750
3181		-23.437500
3182		-15.625000
3183		-27.343750
3184		-17.578125
3185		-33.203125
3186		-23.437500
3187		-37.109375
3188		-27.343750
3189		-41.015625
3190		-31.250000
3191		-44.921875
3192		-35.156250
3193		-46.875000
3194		-39.062500
3195		-50.781250
3196		-44.921875
3197		-56.640625
3198		-48.828125
3199		-60.546875
3200		-50.781250
3201		-64.453125
3202		-54.687500
3203		-66.406250
3204		-58.593750
3205		-70.312500
3206		-60.546875
3207		-72.265625
3208		-64.453125
3209		-76.171875
3210		-68.359375
3211		-78.125000
3212		-72.265625
3213		-80.078125
3214		-76.171875
3215		-83.984375
3216		-76.171875
3217		-85.937500
3218		-78.125000
3219		-89.843750
3220		-80.078125
3221		-91.796875
3222		-83.984375
3223		-91.796875
3224		-83.984375
3225		-93.750000
3226		-85.937500
3227		-93.750000
3228		-87.890625
3229		-93.750000
3230		-91.796875
3231		-95.703125
3232		-91.796875
3233		-97.656250
3234		-89.843750
3235		-97.656250
3236		-91.796875
3237		-97.656250
3238		-91.796875
3239		-99.609375
3240		-91.796875
3241		-99.609375
3242		-91.796875
3243		-97.656250
3244		-91.796875
3245		-95.703125
3246		-93.750000
3247		-95.703125
3248		-91.796875
3249		-95.703125
3250		-89.843750
3251		-93.750000
3252		-87.890625
3253		-93.750000
3254		-85.937500
3255		-91.796875
3256		-83.984375
3257		-89.843750
3258		-82.031250
3259		-87.890625
3260		-80.078125
3261		-83.984375
3262		-80.078125
3263		-82.031250
3264		-78.125000
3265		-80.078125
3266		-72.265625
3267		-78.125000
3268		-70.312500
3269		-76.171875
3270		-66.406250
3271		-72.265625
3272		-62.500000
3273		-70.312500
3274		-60.546875
3275		-66.406250
3276		-56.640625
3277		-60.546875
3278		-54.687500
3279		-56.640625
3280		-50.781250
3281		-52.734375
3282		-44.921875
3283		-50.781250
3284		-41.015625
3285		-46.875000
3286		-37.109375
3287		-42.968750
3288		-33.203125
3289		-37.109375
3290		-29.296875
3291		-35.156250
3292		-25.390625
3293		-29.296875
3294		-21.484375
3295		-23.437500
3296		-17.578125
3297		-19.531250
3298		-13.671875
3299		-17.578125
3300		-7.812500
3301		-11.718750
3302		-1.953125
3303		-7.812500
3304		1.953125
3305		-1.953125
3306		5.859375
3307		0.000000
3308		11.718750
3309		5.859375
3310		15.625000
3311		9.765625
3312		17.578125
3313		15.625000
3314		21.484375
3315		19.531250
3316		27.343750
3317		23.437500
3318		31.250000
3319		27.343750
3320		37.109375
3321		31.250000
3322		41.015625
3323		35.156250
3324		44.921875
3325		39.062500
3326		48.828125
3327		42.968750
3328		50.781250
3329		48.828125
3330		54.687500
3331		52.734375
3332		56.640625
3333		54.687500
3334		62.500000
3335		58.593750
3336		66.406250
3337		60.546875
3338		70.312500
3339		64.453125
3340		72.265625
3341		66.406250
3342		76.171875
3343		70.312500
3344		78.125000
3345		74.218750
3346		80.078125
3347		78.125000
3348		82.031250
3349		80.078125
3350		85.937500
3351		82.031250
3352		87.890625
3353		82.031250
3354		91.796875
3355		85.937500
3356		93.750000
3357		87.890625
3358		93.750000
3359		89.843750
3360		95.703125
3361		91.796875
3362		97.656250
3363		93.750000
3364		97.656250
3365		93.750000
3366		101.562500
3367		93.750000
3368		101.562500
3369		95.703125
3370		103.515625
3371		95.703125
3372		103.515625
3373		97.656250
3374		103.515625
3375		97.656250
3376		105.468750
3377		97.656250
3378		105.468750
3379		101.562500
3380		103.515625
3381		101.562500
3382		103.515625
3383		97.656250
3384		105.468750
3385		97.656250
3386		103.515625
3387		97.656250
3388		103.515625
3389		95.703125
3390		103.515625
3391		95.703125
3392		103.515625
3393		95.703125
3394		101.562500
3395		93.750000
3396		101.562500
3397		93.750000
3398		97.656250
3399		91.796875
3400		95.703125
3401		89.843750
3402		95.703125
3403		87.890625
3404		93.750000
3405		85.937500
3406		91.796875
3407		83.984375
3408		89.843750
3409		82.031250
3410		87.890625
3411		80.078125
3412		85.937500
3413		78.125000
3414		82.031250
3415		74.218750
3416		80.078125
3417		70.312500
3418		78.125000
3419		66.406250
3420		74.218750
3421		62.500000
3422		72.265625
3423		60.546875
3424		70.312500
3425		56.640625
3426		66.406250
3427		54.687500
3428		62.500000
3429		52.734375
3430		56.640625
3431		48.828125
3432		52.734375
3433		41.015625
3434		48.828125
3435		39.062500
3436		46.875000
3437		33.203125
3438		42.968750
3439		31.250000
3440		39.062500
3441		25.390625
3442		35.156250
3443		23.437500
3444		31.250000
3445		19.531250
3446		27.343750
3447		15.625000
3448		21.484375
3449		7.812500
3450		15.625000
3451		3.906250
3452		13.671875
3453		0.000000
3454		9.765625
3455		-3.906250
3456		5.859375
3457		-9.765625
3458		1.953125
3459		-13.671875
3460		-3.906250
3461		-17.578125
3462		-7.812500
3463		-19.531250
3464		-13.671875
3465		-25.390625
3466		-19.531250
3467		-31.250000
3468		-23.437500
3469		-35.156250
3470		-25.390625
3471		-39.062500
3472		-29.296875
3473		-42.968750
3474		-35.156250
3475		-48.828125
3476		-39.062500
3477		-50.781250
3478		-42.968750
3479		-52.734375
3480		-44.921875
3481		-58.593750
3482		-52.734375
3483		-62.500000
3484		-54.687500
3485		-66.406250
3486		-56.640625
3487		-68.359375
3488		-60.546875
3489		-72.265625
3490		-64.453125
3491		-76.171875
3492		-66.406250
3493		-78.125000
3494		-70.312500
3495		-80.078125
3496		-72.265625
3497		-82.031250
3498		-78.125000
3499		-83.984375
3500		-80.078125
3501		-87.890625
3502		-80.078125
3503		-89.843750
3504		-82.031250
3505		-91.796875
3506		-83.984375
3507		-93.750000
3508		-85.937500
3509		-93.750000
3510		-85.937500
3511		-95.703125
3512		-87.890625
3513		-95.703125
3514		-89.843750
3515		-93.750000
3516		-91.796875
3517		-97.656250
3518		-91.796875
3519		-97.656250
3520		-91.796875
3521		-97.656250
3522		-91.796875
3523		-97.656250
3524		-91.796875
3525		-97.656250
3526		-89.843750
3527		-97.656250
3528		-89.843750
3529		-95.703125
3530		-89.843750
3531		-91.796875
3532		-89.843750
3533		-91.796875
3534		-87.890625
3535		-93.750000
3536		-85.937500
3537		-91.796875
3538		-83.984375
3539		-89.843750
3540		-82.031250
3541		-87.890625
3542		-80.078125
3543		-85.937500
3544		-78.125000
3545		-83.984375
3546		-74.218750
3547		-78.125000
3548		-74.218750
3549		-76.171875
3550		-70.312500
3551		-74.218750
3552		-66.406250
3553		-72.265625
3554		-62.500000
3555		-68.359375
3556		-60.546875
3557		-64.453125
3558		-56.640625
3559		-60.546875
3560		-52.734375
3561		-58.593750
3562		-48.828125
3563		-54.687500
3564		-46.875000
3565		-48.828125
3566		-42.968750
3567		-44.921875
3568		-37.109375
3569		-42.968750
3570		-33.203125
3571		-37.109375
3572		-29.296875
3573		-35.156250
3574		-23.437500
3575		-29.296875
3576		-19.531250
3577		-25.390625
3578		-15.625000
3579		-21.484375
3580		-13.671875
3581		-13.671875
3582		-9.765625
3583		-9.765625
3584		-3.906250
3585		-7.812500
3586		1.953125
3587		-3.906250
3588		5.859375
3589		0.000000
3590		11.718750
3591		5.859375
3592		15.625000
3593		9.765625
3594		19.531250
3595		13.671875
3596		23.437500
3597		19.531250
3598		25.390625
3599		25.390625
3600		29.296875
3601		29.296875
3602		35.156250
3603		31.250000
3604		41.015625
3605		35.156250
3606		44.921875
3607		39.062500
3608		48.828125
3609		42.968750
3610		52.734375
3611		46.875000
3612		56.640625
3613		50.781250
3614		56.640625
3615		56.640625
3616		60.546875
3617		58.593750
3618		66.406250
3619		60.546875
3620		70.312500
3621		64.453125
3622		72.265625
3623		68.359375
3624		76.171875
3625		70.312500
3626		78.125000
3627		72.265625
3628		80.078125
3629		76.171875
3630		83.984375
3631		80.078125
3632		83.984375
3633		83.984375
3634		87.890625
3635		83.984375
3636		91.796875
3637		85.937500
3638		93.750000
3639		85.937500
3640		93.750000
3641		89.843750
3642		95.703125
3643		89.843750
3644		97.656250
3645		91.796875
3646		99.609375
3647		93.750000
3648		99.609375
3649		97.656250
3650		99.609375
3651		97.656250
3652		103.515625
3653		97.656250
3654		103.515625
3655		97.656250
3656		103.515625
3657		97.656250
3658		105.468750
3659		97.656250
3660		105.468750
3661		99.609375
3662		105.468750
3663		97.656250
3664		105.468750
3665		101.562500
3666		103.515625
3667		101.562500
3668		103.515625
3669		97.656250
3670		105.468750
3671		97.656250
3672		103.515625
3673		95.703125
3674		103.515625
3675		95.703125
3676		101.562500
3677		93.750000
3678		101.562500
3679		91.796875
3680		99.609375
3681		91.796875
3682		97.656250
3683		91.796875
3684		93.750000
3685		87.890625
3686		93.750000
3687		85.937500
3688		93.750000
3689		83.984375
3690		91.796875
3691		80.078125
3692		89.843750
3693		78.125000
3694		85.937500
3695		76.171875
3696		83.984375
3697		74.218750
3698		82.031250
3699		72.265625
3700		76.171875
3701		68.359375
3702		74.218750
3703		64.453125
3704		74.218750
3705		62.500000
3706		70.312500
3707		56.640625
3708		66.406250
3709		54.687500
3710		62.500000
3711		50.781250
3712		58.593750
3713		46.875000
3714		54.687500
3715		44.921875
3716		50.781250
3717		41.015625
3718		46.875000
3719		35.156250
3720		42.968750
3721		31.250000
3722		39.062500
3723		25.390625
3724		35.156250
3725		23.437500
3726		31.250000
3727		17.578125
3728		27.343750
3729		13.671875
3730		23.437500
3731		11.718750
3732		19.531250
3733		5.859375
3734		11.718750
3735		0.000000
3736		9.765625
3737		-5.859375
3738		5.859375
3739		-7.812500
3740		0.000000
3741		-13.671875
3742		-1.953125
3743		-17.578125
3744		-7.812500
3745		-21.484375
3746		-11.718750
3747		-25.390625
3748		-17.578125
3749		-29.296875
3750		-23.437500
3751		-33.203125
3752		-27.343750
3753		-39.062500
3754		-31.250000
3755		-42.968750
3756		-33.203125
3757		-46.875000
3758		-37.109375
3759		-50.781250
3760		-41.015625
3761		-54.687500
3762		-44.921875
3763		-58.593750
3764		-50.781250
3765		-60.546875
3766		-52.734375
3767		-64.453125
3768		-58.593750
3769		-68.359375
3770		-62.500000
3771		-74.218750
3772		-64.453125
3773		-76.171875
3774		-66.406250
3775		-78.125000
3776		-70.312500
3777		-80.078125
3778		-74.218750
3779		-83.984375
3780		-74.218750
3781		-83.984375
3782		-78.125000
3783		-85.937500
3784		-82.031250
3785		-87.890625
3786		-83.984375
3787		-91.796875
3788		-83.984375
3789		-93.750000
3790		-85.937500
3791		-95.703125
3792		-87.890625
3793		-95.703125
3794		-87.890625
3795		-97.656250
3796		-87.890625
3797		-97.656250
3798		-89.843750
3799		-95.703125
3800		-93.750000
3801		-95.703125
3802		-93.750000
3803		-97.656250
3804		-91.796875
3805		-97.656250
3806		-91.796875
3807		-97.656250
3808		-91.796875
3809		-97.656250
3810		-89.843750
3811		-97.656250
3812		-89.843750
3813		-95.703125
3814		-87.890625
3815		-95.703125
3816		-87.890625
3817		-91.796875
3818		-87.890625
3819		-89.843750
3820		-83.984375
3821		-89.843750
3822		-82.031250
3823		-87.890625
3824		-80.078125
3825		-85.937500
3826		-78.125000
3827		-83.984375
3828		-76.171875
3829		-80.078125
3830		-72.265625
3831		-78.125000
3832		-70.312500
3833		-74.218750
3834		-68.359375
3835		-70.312500
3836		-64.453125
3837		-68.359375
3838		-60.546875
3839		-66.406250
3840		-56.640625
3841		-62.500000
3842		-52.734375
3843		-58.593750
3844		-48.828125
3845		-56.640625
3846		-44.921875
3847		-50.781250
3848		-42.968750
3849		-48.828125
3850		-41.015625
3851		-41.015625
3852		-35.156250
3853		-37.109375
3854		-31.250000
3855		-35.156250
3856		-25.390625
3857		-31.250000
3858		-21.484375
3859		-25.390625
3860		-17.578125
3861		-21.484375
3862		-11.718750
3863		-17.578125
3864		-7.812500
3865		-13.671875
3866		-5.859375
3867		-5.859375
3868		-1.953125
3869		-1.953125
3870		3.906250
3871		0.000000
3872		9.765625
3873		5.859375
3874		13.671875
3875		7.812500
3876		19.531250
3877		13.671875
3878		21.484375
3879		17.578125
3880		27.343750
3881		21.484375
3882		31.250000
3883		27.343750
3884		33.203125
3885		33.203125
3886		37.109375
3887		35.156250
3888		42.968750
3889		39.062500
3890		46.875000
3891		42.968750
3892		50.781250
3893		46.875000
3894		54.687500
3895		48.828125
3896		58.593750
3897		54.687500
3898		62.500000
3899		56.640625
3900		64.453125
3901		62.500000
3902		66.406250
3903		66.406250
3904		72.265625
3905		66.406250
3906		74.218750
3907		70.312500
3908		78.125000
3909		72.265625
3910		80.078125
3911		76.171875
3912		83.984375
3913		78.125000
3914		85.937500
3915		80.078125
3916		87.890625
3917		83.984375
3918		87.890625
3919		85.937500
3920		89.843750
3921		87.890625
3922		95.703125
3923		89.843750
3924		95.703125
3925		89.843750
3926		97.656250
3927		91.796875
3928		99.609375
3929		93.750000
3930		101.562500
3931		93.750000
3932		101.562500
3933		95.703125
3934		101.562500
3935		99.609375
3936		101.562500
3937		97.656250
3938		105.468750
3939		97.656250
3940		103.515625
3941		97.656250
3942		105.468750
3943		97.656250
3944		105.468750
3945		97.656250
3946		105.468750
3947		97.656250
3948		105.468750
3949		97.656250
3950		105.468750
3951		99.609375
3952		101.562500
3953		99.609375
3954		101.562500
3955		95.703125
3956		103.515625
3957		95.703125
3958		101.562500
3959		93.750000
3960		101.562500
3961		93.750000
3962		99.609375
3963		89.843750
3964		99.609375
3965		89.843750
3966		97.656250
3967		89.843750
3968		93.750000
3969		87.890625
3970		91.796875
3971		83.984375
3972		89.843750
3973		82.031250
3974		89.843750
3975		78.125000
3976		87.890625
3977		78.125000
3978		83.984375
3979		72.265625
3980		82.031250
3981		72.265625
3982		78.125000
3983		70.312500
3984		76.171875
3985		66.406250
3986		70.312500
3987		60.546875
3988		68.359375
3989		58.593750
3990		66.406250
3991		54.687500
3992		64.453125
3993		50.781250
3994		60.546875
3995		46.875000
3996		56.640625
3997		42.968750
3998		52.734375
3999		39.062500
4000		50.781250
4001		37.109375
4002		42.968750
4003		33.203125
4004		39.062500
4005		27.343750
4006		35.156250
4007		21.484375
4008		33.203125
4009		17.578125
4010		27.343750
4011		13.671875
4012		23.437500
4013		9.765625
4014		19.531250
4015		3.906250
4016		15.625000
4017		1.953125
4018		9.765625
4019		-1.953125
4020		3.906250
4021		-7.812500
4022		0.000000
4023		-13.671875
4024		-3.906250
4025		-17.578125
4026		-7.812500
4027		-21.484375
4028		-11.718750
4029		-25.390625
4030		-15.625000
4031		-29.296875
4032		-21.484375
4033		-33.203125
4034		-25.390625
4035		-37.109375
4036		-31.250000
4037		-41.015625
4038		-35.156250
4039		-46.875000
4040		-37.109375
4041		-50.781250
4042		-41.015625
4043		-54.687500
4044		-46.875000
4045		-58.593750
4046		-48.828125
4047		-62.500000
4048		-52.734375
4049		-64.453125
4050		-54.687500
4051		-66.406250
4052		-60.546875
4053		-70.312500
4054		-64.453125
4055		-74.218750
4056		-68.359375
4057		-78.125000
4058		-68.359375
4059		-80.078125
4060		-72.265625
4061		-83.984375
4062		-76.171875
4063		-85.937500
4064		-78.125000
4065		-87.890625
4066		-80.078125
4067		-87.890625
4068		-82.031250
4069		-87.890625
4070		-85.937500
4071		-91.796875
4072		-85.937500
4073		-93.750000
4074		-87.890625
4075		-95.703125
4076		-87.890625
4077		-95.703125
4078		-89.843750
4079		-97.656250
4080		-89.843750
4081		-97.656250
4082		-89.843750
4083		-97.656250
4084		-89.843750
4085		-95.703125
4086		-93.750000
4087		-95.703125
4088		-93.750000
4089		-97.656250
4090		-89.843750
4091		-97.656250
4092		-89.843750
4093		-97.656250
4094		-89.843750
4095		-95.703125
4096		-87.890625
4097		-95.703125
4098		-87.890625
4099		-93.750000
4100		-85.937500
4101		-91.796875
4102		-85.937500
4103		-87.890625
4104		-83.984375
4105		-85.937500
4106		-80.078125
4107		-85.937500
4108		-78.125000
4109		-83.984375
4110		-76.171875
4111		-82.031250
4112		-72.265625
4113		-78.125000
4114		-70.312500
4115		-76.171875
4116		-68.359375
4117		-72.265625
4118		-66.406250
4119		-68.359375
4120		-62.500000
4121		-64.453125
4122		-58.593750
4123		-62.500000
4124		-54.687500
4125		-58.593750
4126		-50.781250
4127		-54.687500
4128		-46.875000
4129		-50.781250
4130		-42.968750
4131		-48.828125
4132		-39.062500
4133		-42.968750
4134		-35.156250
4135		-39.062500
4136		-31.250000
4137		-33.203125
4138		-27.343750
4139		-29.296875
4140		-23.437500
4141		-25.390625
4142		-19.531250
4143		-23.437500
4144		-15.625000
4145		-15.625000
4146		-9.765625
4147		-13.671875
4148		-5.859375
4149		-9.765625
4150		0.000000
4151		-5.859375
4152		3.906250
4153		1.953125
4154		7.812500
4155		5.859375
4156		13.671875
4157		9.765625
4158		17.578125
4159		13.671875
4160		21.484375
4161		19.531250
4162		25.390625
4163		21.484375
4164		29.296875
4165		27.343750
4166		33.203125
4167		29.296875
4168		37.109375
4169		35.156250
4170		41.015625
4171		39.062500
4172		44.921875
4173		42.968750
4174		50.781250
4175		46.875000
4176		52.734375
4177		50.781250
4178		56.640625
4179		54.687500
4180		60.546875
4181		58.593750
4182		64.453125
4183		62.500000
4184		66.406250
4185		64.453125
4186		70.312500
4187		68.359375
4188		72.265625
4189		70.312500
4190		76.171875
4191		74.218750
4192		78.125000
4193		76.171875
4194		82.031250
4195		80.078125
4196		83.984375
4197		80.078125
4198		85.937500
4199		83.984375
4200		87.890625
4201		85.937500
4202		89.843750
4203		87.890625
4204		91.796875
4205		89.843750
4206		93.750000
4207		91.796875
4208		95.703125
4209		93.750000
4210		97.656250
4211		95.703125
4212		97.656250
4213		95.703125
4214		99.609375
4215		97.656250
4216		99.609375
4217		97.656250
4218		101.562500
4219		97.656250
4220		101.562500
4221		99.609375
4222		101.562500
4223		99.609375
4224		103.515625
4225		99.609375
4226		103.515625
4227		99.609375
4228		103.515625
4229		99.609375
4230		103.515625
4231		99.609375
4232		103.515625
4233		99.609375
4234		101.562500
4235		99.609375
4236		101.562500
4237		97.656250
4238		101.562500
4239		95.703125
4240		99.609375
4241		95.703125
4242		99.609375
4243		93.750000
4244		97.656250
4245		93.750000
4246		95.703125
4247		91.796875
4248		93.750000
4249		89.843750
4250		93.750000
4251		85.937500
4252		91.796875
4253		85.937500
4254		89.843750
4255		83.984375
4256		87.890625
4257		80.078125
4258		85.937500
4259		78.125000
4260		83.984375
4261		74.218750
4262		80.078125
4263		72.265625
4264		78.125000
4265		70.312500
4266		74.218750
4267		66.406250
4268		72.265625
4269		62.500000
4270		68.359375
4271		60.546875
4272		64.453125
4273		54.687500
4274		60.546875
4275		52.734375
4276		58.593750
4277		48.828125
4278		54.687500
4279		44.921875
4280		50.781250
4281		41.015625
4282		46.875000
4283		37.109375
4284		42.968750
4285		33.203125
4286		39.062500
4287		29.296875
4288		35.156250
4289		25.390625
4290		29.296875
4291		19.531250
4292		27.343750
4293		15.625000
4294		21.484375
4295		11.718750
4296		17.578125
4297		5.859375
4298		13.671875
4299		1.953125
4300		7.812500
4301		-1.953125
4302		3.906250
4303		-5.859375
4304		0.000000
4305		-11.718750
4306		-5.859375
4307		-15.625000
4308		-9.765625
4309		-19.531250
4310		-13.671875
4311		-23.437500
4312		-17.578125
4313		-27.343750
4314		-21.484375
4315		-33.203125
4316		-27.343750
4317		-37.109375
4318		-31.250000
4319		-41.015625
4320		-35.156250
4321		-44.921875
4322		-39.062500
4323		-48.828125
4324		-42.968750
4325		-52.734375
4326		-46.875000
4327		-56.640625
4328		-50.781250
4329		-60.546875
4330		-54.687500
4331		-62.500000
4332		-58.593750
4333		-66.406250
4334		-62.500000
4335		-72.265625
4336		-64.453125
4337		-72.265625
4338		-68.359375
4339		-76.171875
4340		-72.265625
4341		-78.125000
4342		-74.218750
4343		-80.078125
4344		-76.171875
4345		-83.984375
4346		-78.125000
4347		-85.937500
4348		-82.031250
4349		-87.890625
4350		-83.984375
4351		-89.843750
4352		-85.937500
4353		-89.843750
4354		-85.937500
4355		-91.796875
4356		-89.843750
4357		-93.750000
4358		-89.843750
4359		-93.750000
4360		-91.796875
4361		-95.703125
4362		-91.796875
4363		-95.703125
4364		-91.796875
4365		-95.703125
4366		-93.750000
4367		-95.703125
4368		-93.750000
4369		-95.703125
4370		-93.750000
4371		-95.703125
4372		-93.750000
4373		-95.703125
4374		-93.750000
4375		-95.703125
4376		-91.796875
4377		-93.750000
4378		-89.843750
4379		-93.750000
4380		-89.843750
4381		-91.796875
4382		-87.890625
4383		-89.843750
4384		-85.937500
4385		-87.890625
4386		-83.984375
4387		-87.890625
4388		-82.031250
4389		-83.984375
4390		-80.078125
4391		-82.031250
4392		-78.125000
4393		-80.078125
4394		-76.171875
4395		-78.125000
4396		-72.265625
4397		-74.218750
4398		-68.359375
4399		-70.312500
4400		-66.406250
4401		-68.359375
4402		-62.500000
4403		-64.453125
4404		-60.546875
4405		-62.500000
4406		-56.640625
4407		-58.593750
4408		-52.734375
4409		-54.687500
4410		-48.828125
4411		-50.781250
4412		-44.921875
4413		-46.875000
4414		-41.015625
4415		-42.968750
4416		-37.109375
4417		-37.109375
4418		-31.250000
4419		-33.203125
4420		-27.343750
4421		-29.296875
4422		-23.437500
4423		-25.390625
4424		-19.531250
4425		-21.484375
4426		-15.625000
4427		-17.578125
4428		-11.718750
4429		-11.718750
4430		-5.859375
4431		-7.812500
4432		-1.953125
4433		-3.906250
4434		1.953125
4435		0.000000
4436		5.859375
4437		5.859375
4438		11.718750
4439		9.765625
4440		15.625000
4441		13.671875
4442		21.484375
4443		17.578125
4444		25.390625
4445		23.437500
4446		27.343750
4447		27.343750
4448		33.203125
4449		31.250000
4450		37.109375
4451		35.156250
4452		41.015625
4453		39.062500
4454		44.921875
4455		42.968750
4456		48.828125
4457		46.875000
4458		52.734375
4459		50.781250
4460		56.640625
4461		54.687500
4462		60.546875
4463		56.640625
4464		62.500000
4465		62.500000
4466		66.406250
4467		64.453125
4468		70.312500
4469		68.359375
4470		72.265625
4471		70.312500
4472		76.171875
4473		74.218750
4474		78.125000
4475		76.171875
4476		82.031250
4477		80.078125
4478		83.984375
4479		82.031250
4480		85.937500
4481		83.984375
4482		87.890625
4483		85.937500
4484		89.843750
4485		87.890625
4486		91.796875
4487		89.843750
4488		93.750000
4489		91.796875
4490		95.703125
4491		93.750000
4492		97.656250
4493		93.750000
4494		97.656250
4495		95.703125
4496		99.609375
4497		97.656250
4498		101.562500
4499		97.656250
4500		101.562500
4501		99.609375
4502		101.562500
4503		99.609375
4504		103.515625
4505		99.609375
4506		103.515625
4507		101.562500
4508		103.515625
4509		99.609375
4510		103.515625
4511		99.609375
4512		103.515625
4513		99.609375
4514		103.515625
4515		99.609375
4516		103.515625
4517		97.656250
4518		101.562500
4519		97.656250
4520		101.562500
4521		97.656250
4522		101.562500
4523		95.703125
4524		99.609375
4525		95.703125
4526		97.656250
4527		93.750000
4528		97.656250
4529		91.796875
4530		95.703125
4531		89.843750
4532		93.750000
4533		87.890625
4534		91.796875
4535		85.937500
4536		89.843750
4537		82.031250
4538		87.890625
4539		82.031250
4540		85.937500
4541		80.078125
4542		83.984375
4543		76.171875
4544		82.031250
4545		74.218750
4546		78.125000
4547		70.312500
4548		76.171875
4549		68.359375
4550		72.265625
4551		64.453125
4552		70.312500
4553		60.546875
4554		66.406250
4555		56.640625
4556		62.500000
4557		54.687500
4558		58.593750
4559		48.828125
4560		54.687500
4561		46.875000
4562		50.781250
4563		41.015625
4564		46.875000
4565		37.109375
4566		42.968750
4567		35.156250
4568		39.062500
4569		29.296875
4570		35.156250
4571		25.390625
4572		33.203125
4573		21.484375
4574		27.343750
4575		17.578125
4576		23.437500
4577		13.671875
4578		19.531250
4579		7.812500
4580		13.671875
4581		3.906250
4582		9.765625
4583		0.000000
4584		5.859375
4585		-5.859375
4586		1.953125
4587		-9.765625
4588		-3.906250
4589		-13.671875
4590		-7.812500
4591		-17.578125
4592		-11.718750
4593		-23.437500
4594		-17.578125
4595		-27.343750
4596		-21.484375
4597		-31.250000
4598		-25.390625
4599		-35.156250
4600		-29.296875
4601		-39.062500
4602		-35.156250
4603		-42.968750
4604		-37.109375
4605		-46.875000
4606		-42.968750
4607		-50.781250
4608		-46.875000
4609		-54.687500
4610		-50.781250
4611		-58.593750
4612		-52.734375
4613		-62.500000
4614		-56.640625
4615		-66.406250
4616		-60.546875
4617		-68.359375
4618		-64.453125
4619		-72.265625
4620		-66.406250
4621		-76.171875
4622		-70.312500
4623		-78.125000
4624		-74.218750
4625		-80.078125
4626		-76.171875
4627		-82.031250
4628		-78.125000
4629		-85.937500
4630		-80.078125
4631		-87.890625
4632		-83.984375
4633		-87.890625
4634		-85.937500
4635		-89.843750
4636		-85.937500
4637		-91.796875
4638		-87.890625
4639		-91.796875
4640		-89.843750
4641		-93.750000
4642		-91.796875
4643		-95.703125
4644		-91.796875
4645		-95.703125
4646		-91.796875
4647		-95.703125
4648		-91.796875
4649		-95.703125
4650		-93.750000
4651		-95.703125
4652		-93.750000
4653		-95.703125
4654		-91.796875
4655		-95.703125
4656		-91.796875
4657		-93.750000
4658		-91.796875
4659		-93.750000
4660		-91.796875
4661		-93.750000
4662		-89.843750
4663		-91.796875
4664		-87.890625
4665		-89.843750
4666		-85.937500
4667		-87.890625
4668		-83.984375
4669		-85.937500
4670		-82.031250
4671		-83.984375
4672		-80.078125
4673		-83.984375
4674		-78.125000
4675		-80.078125
4676		-76.171875
4677		-78.125000
4678		-72.265625
4679		-74.218750
4680		-70.312500
4681		-72.265625
4682		-66.406250
4683		-68.359375
4684		-62.500000
4685		-64.453125
4686		-60.546875
4687		-62.500000
4688		-56.640625
4689		-58.593750
4690		-52.734375
4691		-54.687500
4692		-48.828125
4693		-50.781250
4694		-44.921875
4695		-46.875000
4696		-41.015625
4697		-42.968750
4698		-37.109375
4699		-39.062500
4700		-33.203125
4701		-35.156250
4702		-29.296875
4703		-31.250000
4704		-25.390625
4705		-25.390625
4706		-19.531250
4707		-21.484375
4708		-15.625000
4709		-17.578125
4710		-11.718750
4711		-13.671875
4712		-5.859375
4713		-7.812500
4714		-1.953125
4715		-3.906250
4716		1.953125
4717		0.000000
4718		5.859375
4719		3.906250
4720		9.765625
4721		9.765625
4722		15.625000
4723		13.671875
4724		19.531250
4725		17.578125
4726		23.437500
4727		21.484375
4728		29.296875
4729		27.343750
4730		33.203125
4731		31.250000
4732		37.109375
4733		35.156250
4734		41.015625
4735		39.062500
4736		44.921875
4737		42.968750
4738		48.828125
4739		46.875000
4740		52.734375
4741		50.781250
4742		54.687500
4743		54.687500
4744		58.593750
4745		56.640625
4746		62.500000
4747		60.546875
4748		66.406250
4749		64.453125
4750		68.359375
4751		66.406250
4752		72.265625
4753		70.312500
4754		74.218750
4755		72.265625
4756		78.125000
4757		76.171875
4758		80.078125
4759		78.125000
4760		82.031250
4761		80.078125
4762		85.937500
4763		83.984375
4764		87.890625
4765		85.937500
4766		89.843750
4767		87.890625
4768		91.796875
4769		89.843750
4770		93.750000
4771		91.796875
4772		95.703125
4773		93.750000
4774		97.656250
4775		95.703125
4776		97.656250
4777		95.703125
4778		99.609375
4779		97.656250
4780		99.609375
4781		97.656250
4782		101.562500
4783		99.609375
4784		101.562500
4785		99.609375
4786		103.515625
4787		99.609375
4788		103.515625
4789		99.609375
4790		103.515625
4791		101.562500
4792		103.515625
4793		101.562500
4794		103.515625
4795		99.609375
4796		103.515625
4797		99.609375
4798		101.562500
4799		99.609375
4800		101.562500
4801		97.656250
4802		101.562500
4803		97.656250
4804		101.562500
4805		95.703125
4806		99.609375
4807		93.750000
4808		99.609375
4809		93.750000
4810		97.656250
4811		91.796875
4812		95.703125
4813		89.843750
4814		93.750000
4815		87.890625
4816		91.796875
4817		85.937500
4818		89.843750
4819		83.984375
4820		87.890625
4821		82.031250
4822		85.937500
4823		78.125000
4824		83.984375
4825		76.171875
4826		80.078125
4827		74.218750
4828		78.125000
4829		70.312500
4830		76.171875
4831		68.359375
4832		72.265625
4833		64.453125
4834		68.359375
4835		60.546875
4836		66.406250
4837		58.593750
4838		62.500000
4839		54.687500
4840		60.546875
4841		50.781250
4842		56.640625
4843		46.875000
4844		52.734375
4845		42.968750
4846		48.828125
4847		39.062500
4848		44.921875
4849		35.156250
4850		41.015625
4851		31.250000
4852		35.156250
4853		25.390625
4854		31.250000
4855		21.484375
4856		27.343750
4857		17.578125
4858		23.437500
4859		13.671875
4860		19.531250
4861		7.812500
4862		13.671875
4863		3.906250
4864		9.765625
4865		0.000000
4866		5.859375
4867		-3.906250
4868		1.953125
4869		-7.812500
4870		-1.953125
4871		-13.671875
4872		-7.812500
4873		-19.531250
4874		-11.718750
4875		-21.484375
4876		-15.625000
4877		-25.390625
4878		-19.531250
4879		-31.250000
4880		-25.390625
4881		-35.156250
4882		-29.296875
4883		-39.062500
4884		-33.203125
4885		-42.968750
4886		-37.109375
4887		-46.875000
4888		-41.015625
4889		-50.781250
4890		-44.921875
4891		-54.687500
4892		-48.828125
4893		-58.593750
4894		-52.734375
4895		-62.500000
4896		-56.640625
4897		-66.406250
4898		-60.546875
4899		-68.359375
4900		-64.453125
4901		-72.265625
4902		-66.406250
4903		-74.218750
4904		-68.359375
4905		-78.125000
4906		-72.265625
4907		-80.078125
4908		-76.171875
4909		-82.031250
4910		-78.125000
4911		-83.984375
4912		-80.078125
4913		-85.937500
4914		-82.031250
4915		-87.890625
4916		-83.984375
4917		-89.843750
4918		-85.937500
4919		-91.796875
4920		-85.937500
4921		-91.796875
4922		-89.843750
4923		-93.750000
4924		-89.843750
4925		-93.750000
4926		-91.796875
4927		-93.750000
4928		-91.796875
4929		-95.703125
4930		-91.796875
4931		-95.703125
4932		-91.796875
4933		-95.703125
4934		-91.796875
4935		-95.703125
4936		-91.796875
4937		-95.703125
4938		-91.796875
4939		-93.750000
4940		-91.796875
4941		-93.750000
4942		-89.843750
4943		-91.796875
4944		-89.843750
4945		-91.796875
4946		-87.890625
4947		-89.843750
4948		-85.937500
4949		-89.843750
4950		-83.984375
4951		-87.890625
4952		-82.031250
4953		-85.937500
4954		-80.078125
4955		-82.031250
4956		-78.125000
4957		-80.078125
4958		-74.218750
4959		-78.125000
4960		-72.265625
4961		-74.218750
4962		-70.312500
4963		-72.265625
4964		-66.406250
4965		-68.359375
4966		-64.453125
4967		-64.453125
4968		-60.546875
4969		-62.500000
4970		-56.640625
4971		-58.593750
4972		-52.734375
4973		-54.687500
4974		-48.828125
4975		-50.781250
4976		-44.921875
4977		-46.875000
4978		-41.015625
4979		-42.968750
4980		-37.109375
4981		-39.062500
4982		-33.203125
4983		-35.156250
4984		-29.296875
4985		-31.250000
4986		-25.390625
4987		-25.390625
4988		-19.531250
4989		-21.484375
4990		-15.625000
4991		-17.578125
4992		-11.718750
4993		-13.671875
4994		-7.812500
4995		-7.812500
4996		-1.953125
4997		-3.906250
4998		1.953125
4999		0.000000
5000		5.859375
5001		3.906250
5002		11.718750
5003		9.765625
5004		15.625000
5005		13.671875
5006		19.531250
5007		17.578125
5008		23.437500
5009		21.484375
5010		27.343750
5011		27.343750
5012		31.250000
5013		31.250000
5014		37.109375
5015		35.156250
5016		39.062500
5017		39.062500
5018		44.921875
5019		42.968750
5020		48.828125
5021		46.875000
5022		52.734375
5023		50.781250
5024		54.687500
5025		54.687500
5026		58.593750
5027		56.640625
5028		62.500000
5029		60.546875
5030		66.406250
5031		64.453125
5032		68.359375
5033		66.406250
5034		72.265625
5035		70.312500
5036		76.171875
5037		74.218750
5038		78.125000
5039		76.171875
5040		82.031250
5041		80.078125
5042		83.984375
5043		82.031250
5044		85.937500
5045		83.984375
5046		87.890625
5047		85.937500
5048		89.843750
5049		87.890625
5050		91.796875
5051		89.843750
5052		93.750000
5053		91.796875
5054		95.703125
5055		93.750000
5056		97.656250
5057		95.703125
5058		97.656250
5059		95.703125
5060		99.609375
5061		97.656250
5062		101.562500
5063		97.656250
5064		101.562500
5065		99.609375
5066		101.562500
5067		99.609375
5068		103.515625
5069		99.609375
5070		103.515625
5071		101.562500
5072		103.515625
5073		101.562500
5074		103.515625
5075		99.609375
5076		103.515625
5077		101.562500
5078		103.515625
5079		99.609375
5080		103.515625
5081		99.609375
5082		103.515625
5083		99.609375
5084		101.562500
5085		97.656250
5086		101.562500
5087		97.656250
5088		99.609375
5089		95.703125
5090		99.609375
5091		93.750000
5092		97.656250
5093		93.750000
5094		95.703125
5095		91.796875
5096		93.750000
5097		87.890625
5098		93.750000
5099		85.937500
5100		91.796875
5101		83.984375
5102		87.890625
5103		82.031250
5104		85.937500
5105		80.078125
5106		83.984375
5107		76.171875
5108		82.031250
5109		74.218750
5110		78.125000
5111		72.265625
5112		76.171875
5113		68.359375
5114		72.265625
5115		66.406250
5116		70.312500
5117		62.500000
5118		66.406250
5119		58.593750
5120		64.453125
5121		54.687500
5122		60.546875
5123		50.781250
5124		56.640625
5125		46.875000
5126		52.734375
5127		42.968750
5128		48.828125
5129		39.062500
5130		44.921875
5131		35.156250
5132		41.015625
5133		31.250000
5134		37.109375
5135		27.343750
5136		33.203125
5137		23.437500
5138		29.296875
5139		17.578125
5140		23.437500
5141		13.671875
5142		21.484375
5143		9.765625
5144		15.625000
5145		5.859375
5146		11.718750
5147		0.000000
5148		5.859375
5149		-3.906250
5150		1.953125
5151		-7.812500
5152		-1.953125
5153		-13.671875
5154		-5.859375
5155		-17.578125
5156		-11.718750
5157		-21.484375
5158		-15.625000
5159		-27.343750
5160		-19.531250
5161		-29.296875
5162		-23.437500
5163		-35.156250
5164		-29.296875
5165		-39.062500
5166		-33.203125
5167		-42.968750
5168		-37.109375
5169		-46.875000
5170		-41.015625
5171		-50.781250
5172		-44.921875
5173		-54.687500
5174		-48.828125
5175		-58.593750
5176		-52.734375
5177		-62.500000
5178		-56.640625
5179		-64.453125
5180		-60.546875
5181		-68.359375
5182		-64.453125
5183		-72.265625
5184		-66.406250
5185		-74.218750
5186		-70.312500
5187		-78.125000
5188		-72.265625
5189		-80.078125
5190		-74.218750
5191		-82.031250
5192		-78.125000
5193		-83.984375
5194		-80.078125
5195		-85.937500
5196		-82.031250
5197		-87.890625
5198		-83.984375
5199		-89.843750
5200		-85.937500
5201		-91.796875
5202		-87.890625
5203		-91.796875
5204		-89.843750
5205		-93.750000
5206		-89.843750
5207		-93.750000
5208		-91.796875
5209		-95.703125
5210		-91.796875
5211		-95.703125
5212		-91.796875
5213		-95.703125
5214		-93.750000
5215		-95.703125
5216		-91.796875
5217		-95.703125
5218		-91.796875
5219		-95.703125
5220		-91.796875
5221		-93.750000
5222		-91.796875
5223		-93.750000
5224		-91.796875
5225		-93.750000
5226		-89.843750
5227		-91.796875
5228		-87.890625
5229		-89.843750
5230		-87.890625
5231		-89.843750
5232		-83.984375
5233		-85.937500
5234		-82.031250
5235		-83.984375
5236		-80.078125
5237		-83.984375
5238		-78.125000
5239		-80.078125
5240		-76.171875
5241		-78.125000
5242		-74.218750
5243		-74.218750
5244		-70.312500
5245		-72.265625
5246		-68.359375
5247		-68.359375
5248		-64.453125
5249		-66.406250
5250		-60.546875
5251		-62.500000
5252		-56.640625
5253		-58.593750
5254		-52.734375
5255		-54.687500
5256		-50.781250
5257		-52.734375
5258		-46.875000
5259		-46.875000
5260		-42.968750
5261		-44.921875
5262		-39.062500
5263		-39.062500
5264		-35.156250
5265		-35.156250
5266		-29.296875
5267		-31.250000
5268		-25.390625
5269		-27.343750
5270		-21.484375
5271		-23.437500
5272		-17.578125
5273		-19.531250
5274		-11.718750
5275		-13.671875
5276		-7.812500
5277		-9.765625
5278		-3.906250
5279		-5.859375
5280		0.000000
5281		0.000000
5282		5.859375
5283		3.906250
5284		9.765625
5285		7.812500
5286		15.625000
5287		11.718750
5288		17.578125
5289		17.578125
5290		23.437500
5291		21.484375
5292		27.343750
5293		25.390625
5294		31.250000
5295		29.296875
5296		35.156250
5297		33.203125
5298		39.062500
5299		37.109375
5300		42.968750
5301		41.015625
5302		46.875000
5303		44.921875
5304		50.781250
5305		48.828125
5306		54.687500
5307		52.734375
5308		58.593750
5309		56.640625
5310		62.500000
5311		60.546875
5312		64.453125
5313		64.453125
5314		68.359375
5315		66.406250
5316		72.265625
5317		70.312500
5318		74.218750
5319		72.265625
5320		76.171875
5321		74.218750
5322		80.078125
5323		78.125000
5324		82.031250
5325		80.078125
5326		85.937500
5327		83.984375
5328		87.890625
5329		85.937500
5330		89.843750
5331		87.890625
5332		91.796875
5333		89.843750
5334		93.750000
5335		91.796875
5336		95.703125
5337		93.750000
5338		97.656250
5339		93.750000
5340		97.656250
5341		95.703125
5342		99.609375
5343		97.656250
5344		99.609375
5345		97.656250
5346		101.562500
5347		99.609375
5348		101.562500
5349		99.609375
5350		103.515625
5351		99.609375
5352		103.515625
5353		99.609375
5354		103.515625
5355		101.562500
5356		103.515625
5357		99.609375
5358		103.515625
5359		99.609375
5360		103.515625
5361		99.609375
5362		103.515625
5363		99.609375
5364		101.562500
5365		97.656250
5366		101.562500
5367		97.656250
5368		101.562500
5369		95.703125
5370		99.609375
5371		95.703125
5372		97.656250
5373		93.750000
5374		97.656250
5375		91.796875
5376		95.703125
5377		89.843750
5378		93.750000
5379		87.890625
5380		93.750000
5381		87.890625
5382		91.796875
5383		83.984375
5384		87.890625
5385		82.031250
5386		85.937500
5387		80.078125
5388		83.984375
5389		78.125000
5390		82.031250
5391		74.218750
5392		80.078125
5393		72.265625
5394		76.171875
5395		68.359375
5396		74.218750
5397		64.453125
5398		70.312500
5399		60.546875
5400		66.406250
5401		58.593750
5402		64.453125
5403		54.687500
5404		60.546875
5405		50.781250
5406		56.640625
5407		46.875000
5408		52.734375
5409		42.968750
5410		48.828125
5411		39.062500
5412		44.921875
5413		35.156250
5414		41.015625
5415		31.250000
5416		37.109375
5417		27.343750
5418		33.203125
5419		23.437500
5420		29.296875
5421		17.578125
5422		25.390625
5423		13.671875
5424		19.531250
5425		9.765625
5426		15.625000
5427		5.859375
5428		11.718750
5429		1.953125
5430		7.812500
5431		-3.906250
5432		1.953125
5433		-7.812500
5434		-1.953125
5435		-11.718750
5436		-5.859375
5437		-17.578125
5438		-11.718750
5439		-21.484375
5440		-15.625000
5441		-25.390625
5442		-19.531250
5443		-29.296875
5444		-23.437500
5445		-35.156250
5446		-27.343750
5447		-37.109375
5448		-33.203125
5449		-42.968750
5450		-37.109375
5451		-46.875000
5452		-41.015625
5453		-50.781250
5454		-44.921875
5455		-54.687500
5456		-48.828125
5457		-58.593750
5458		-52.734375
5459		-60.546875
5460		-56.640625
5461		-64.453125
5462		-58.593750
5463		-68.359375
5464		-62.500000
5465		-70.312500
5466		-66.406250
5467		-74.218750
5468		-70.312500
5469		-76.171875
5470		-72.265625
5471		-78.125000
5472		-74.218750
5473		-82.031250
5474		-78.125000
5475		-83.984375
5476		-80.078125
5477		-85.937500
5478		-82.031250
5479		-87.890625
5480		-83.984375
5481		-89.843750
5482		-85.937500
5483		-91.796875
5484		-87.890625
5485		-91.796875
5486		-87.890625
5487		-93.750000
5488		-89.843750
5489		-93.750000
5490		-89.843750
5491		-93.750000
5492		-91.796875
5493		-95.703125
5494		-91.796875
5495		-95.703125
5496		-91.796875
5497		-95.703125
5498		-93.750000
5499		-95.703125
5500		-93.750000
5501		-95.703125
5502		-91.796875
5503		-95.703125
5504		-91.796875
5505		-93.750000
5506		-89.843750
5507		-91.796875
5508		-89.843750
5509		-91.796875
5510		-87.890625
5511		-89.843750
5512		-85.937500
5513		-89.843750
5514		-83.984375
5515		-85.937500
5516		-83.984375
5517		-83.984375
5518		-80.078125
5519		-82.031250
5520		-78.125000
5521		-80.078125
5522		-76.171875
5523		-78.125000
5524		-72.265625
5525		-74.218750
5526		-70.312500
5527		-72.265625
5528		-68.359375
5529		-68.359375
5530		-62.500000
5531		-66.406250
5532		-60.546875
5533		-62.500000
5534		-56.640625
5535		-60.546875
5536		-54.687500
5537		-54.687500
5538		-48.828125
5539		-52.734375
5540		-44.921875
5541		-46.875000
5542		-41.015625
5543		-42.968750
5544		-37.109375
5545		-39.062500
5546		-33.203125
5547		-35.156250
5548		-29.296875
5549		-31.250000
5550		-25.390625
5551		-27.343750
5552		-21.484375
5553		-21.484375
5554		-17.578125
5555		-17.578125
5556		-11.718750
5557		-13.671875
5558		-7.812500
5559		-9.765625
5560		-3.906250
5561		-3.906250
5562		1.953125
5563		0.000000
5564		5.859375
5565		3.906250
5566		9.765625
5567		7.812500
5568		15.625000
5569		11.718750
5570		17.578125
5571		15.625000
5572		23.437500
5573		21.484375
5574		27.343750
5575		25.390625
5576		31.250000
5577		29.296875
5578		37.109375
5579		33.203125
5580		41.015625
5581		37.109375
5582		42.968750
5583		41.015625
5584		46.875000
5585		44.921875
5586		50.781250
5587		48.828125
5588		54.687500
5589		52.734375
5590		58.593750
5591		56.640625
5592		62.500000
5593		60.546875
5594		64.453125
5595		64.453125
5596		68.359375
5597		66.406250
5598		72.265625
5599		70.312500
5600		74.218750
5601		72.265625
5602		78.125000
5603		74.218750
5604		80.078125
5605		78.125000
5606		82.031250
5607		80.078125
5608		85.937500
5609		83.984375
5610		87.890625
5611		85.937500
5612		89.843750
5613		87.890625
5614		91.796875
5615		89.843750
5616		93.750000
5617		91.796875
5618		95.703125
5619		91.796875
5620		97.656250
5621		93.750000
5622		97.656250
5623		95.703125
5624		99.609375
5625		97.656250
5626		99.609375
5627		97.656250
5628		101.562500
5629		99.609375
5630		101.562500
5631		97.656250
5632		103.515625
5633		99.609375
5634		103.515625
5635		101.562500
5636		103.515625
5637		99.609375
5638		103.515625
5639		99.609375
5640		103.515625
5641		99.609375
5642		103.515625
5643		99.609375
5644		103.515625
5645		99.609375
5646		103.515625
5647		97.656250
5648		101.562500
5649		97.656250
5650		101.562500
5651		97.656250
5652		99.609375
5653		95.703125
5654		99.609375
5655		93.750000
5656		97.656250
5657		91.796875
5658		95.703125
5659		91.796875
5660		93.750000
5661		87.890625
5662		93.750000
5663		85.937500
5664		91.796875
5665		85.937500
5666		89.843750
5667		82.031250
5668		85.937500
5669		80.078125
5670		83.984375
5671		78.125000
5672		82.031250
5673		74.218750
5674		80.078125
5675		72.265625
5676		78.125000
5677		68.359375
5678		74.218750
5679		66.406250
5680		70.312500
5681		62.500000
5682		66.406250
5683		58.593750
5684		64.453125
5685		54.687500
5686		60.546875
5687		52.734375
5688		56.640625
5689		48.828125
5690		52.734375
5691		44.921875
5692		48.828125
5693		39.062500
5694		44.921875
5695		35.156250
5696		42.968750
5697		31.250000
5698		39.062500
5699		27.343750
5700		33.203125
5701		23.437500
5702		29.296875
5703		19.531250
5704		25.390625
5705		15.625000
5706		19.531250
5707		9.765625
5708		17.578125
5709		5.859375
5710		11.718750
5711		0.000000
5712		7.812500
5713		-3.906250
5714		1.953125
5715		-7.812500
5716		-1.953125
5717		-11.718750
5718		-5.859375
5719		-15.625000
5720		-9.765625
5721		-21.484375
5722		-15.625000
5723		-25.390625
5724		-17.578125
5725		-29.296875
5726		-23.437500
5727		-33.203125
5728		-27.343750
5729		-39.062500
5730		-31.250000
5731		-42.968750
5732		-37.109375
5733		-46.875000
5734		-41.015625
5735		-50.781250
5736		-44.921875
5737		-52.734375
5738		-46.875000
5739		-56.640625
5740		-52.734375
5741		-60.546875
5742		-54.687500
5743		-64.453125
5744		-60.546875
5745		-68.359375
5746		-62.500000
5747		-70.312500
5748		-66.406250
5749		-74.218750
5750		-68.359375
5751		-76.171875
5752		-72.265625
5753		-80.078125
5754		-74.218750
5755		-82.031250
5756		-76.171875
5757		-83.984375
5758		-80.078125
5759		-85.937500
5760		-82.031250
5761		-87.890625
5762		-83.984375
5763		-89.843750
5764		-85.937500
5765		-91.796875
5766		-87.890625
5767		-91.796875
5768		-89.843750
5769		-93.750000
5770		-89.843750
5771		-95.703125
5772		-91.796875
5773		-95.703125
5774		-91.796875
5775		-95.703125
5776		-91.796875
5777		-95.703125
5778		-93.750000
5779		-95.703125
5780		-93.750000
5781		-97.656250
5782		-93.750000
5783		-95.703125
5784		-93.750000
5785		-95.703125
5786		-91.796875
5787		-95.703125
5788		-91.796875
5789		-93.750000
5790		-89.843750
5791		-91.796875
5792		-87.890625
5793		-91.796875
5794		-87.890625
5795		-89.843750
5796		-85.937500
5797		-87.890625
5798		-83.984375
5799		-85.937500
5800		-82.031250
5801		-83.984375
5802		-80.078125
5803		-82.031250
5804		-76.171875
5805		-78.125000
5806		-74.218750
5807		-76.171875
5808		-70.312500
5809		-74.218750
5810		-68.359375
5811		-70.312500
5812		-64.453125
5813		-66.406250
5814		-62.500000
5815		-64.453125
5816		-58.593750
5817		-60.546875
5818		-54.687500
5819		-56.640625
5820		-50.781250
5821		-54.687500
5822		-46.875000
5823		-48.828125
5824		-42.968750
5825		-44.921875
5826		-39.062500
5827		-41.015625
5828		-35.156250
5829		-37.109375
5830		-31.250000
5831		-33.203125
5832		-25.390625
5833		-29.296875
5834		-21.484375
5835		-23.437500
5836		-17.578125
5837		-19.531250
5838		-13.671875
5839		-15.625000
5840		-9.765625
5841		-11.718750
5842		-5.859375
5843		-5.859375
5844		0.000000
5845		-1.953125
5846		3.906250
5847		1.953125
5848		7.812500
5849		5.859375
5850		13.671875
5851		11.718750
5852		17.578125
5853		15.625000
5854		21.484375
5855		19.531250
5856		27.343750
5857		23.437500
5858		31.250000
5859		27.343750
5860		35.156250
5861		31.250000
5862		39.062500
5863		37.109375
5864		44.921875
5865		39.062500
5866		46.875000
5867		44.921875
5868		50.781250
5869		48.828125
5870		54.687500
5871		52.734375
5872		58.593750
5873		54.687500
5874		62.500000
5875		58.593750
5876		66.406250
5877		62.500000
5878		68.359375
5879		64.453125
5880		72.265625
5881		68.359375
5882		74.218750
5883		72.265625
5884		76.171875
5885		74.218750
5886		78.125000
5887		78.125000
5888		83.984375
5889		78.125000
5890		85.937500
5891		82.031250
5892		87.890625
5893		83.984375
5894		89.843750
5895		85.937500
5896		91.796875
5897		87.890625
5898		93.750000
5899		89.843750
5900		95.703125
5901		91.796875
5902		95.703125
5903		93.750000
5904		97.656250
5905		93.750000
5906		99.609375
5907		95.703125
5908		99.609375
5909		95.703125
5910		101.562500
5911		97.656250
5912		101.562500
5913		97.656250
5914		103.515625
5915		99.609375
5916		103.515625
5917		99.609375
5918		103.515625
5919		101.562500
5920		103.515625
5921		99.609375
5922		103.515625
5923		99.609375
5924		103.515625
5925		99.609375
5926		101.562500
5927		99.609375
5928		101.562500
5929		97.656250
5930		101.562500
5931		97.656250
5932		99.609375
5933		97.656250
5934		99.609375
5935		95.703125
5936		97.656250
5937		93.750000
5938		97.656250
5939		91.796875
5940		95.703125
5941		91.796875
5942		93.750000
5943		89.843750
5944		91.796875
5945		87.890625
5946		91.796875
5947		83.984375
5948		89.843750
5949		82.031250
5950		85.937500
5951		80.078125
5952		83.984375
5953		78.125000
5954		82.031250
5955		74.218750
5956		78.125000
5957		72.265625
5958		76.171875
5959		68.359375
5960		74.218750
5961		66.406250
5962		70.312500
5963		62.500000
5964		68.359375
5965		58.593750
5966		64.453125
5967		54.687500
5968		60.546875
5969		52.734375
5970		56.640625
5971		48.828125
5972		52.734375
5973		44.921875
5974		48.828125
5975		41.015625
5976		44.921875
5977		35.156250
5978		41.015625
5979		31.250000
5980		37.109375
5981		27.343750
5982		33.203125
5983		23.437500
5984		29.296875
5985		19.531250
5986		25.390625
5987		15.625000
5988		21.484375
5989		9.765625
5990		15.625000
5991		5.859375
5992		11.718750
5993		1.953125
5994		7.812500
5995		-1.953125
5996		3.906250
5997		-7.812500
5998		-1.953125
5999		-11.718750
6000		-5.859375
6001		-15.625000
6002		-9.765625
6003		-19.531250
6004		-13.671875
6005		-25.390625
6006		-19.531250
6007		-29.296875
6008		-23.437500
6009		-33.203125
6010		-27.343750
6011		-37.109375
6012		-31.250000
6013		-41.015625
6014		-37.109375
6015		-44.921875
6016		-41.015625
6017		-48.828125
6018		-42.968750
6019		-52.734375
6020		-48.828125
6021		-58.593750
6022		-52.734375
6023		-62.500000
6024		-52.734375
6025		-68.359375
6026		-56.640625
6027		-68.359375
6028		-60.546875
6029		-70.312500
6030		-66.406250
6031		-74.218750
6032		-68.359375
6033		-76.171875
6034		-72.265625
6035		-78.125000
6036		-74.218750
6037		-82.031250
6038		-78.125000
6039		-85.937500
6040		-76.171875
6041		-87.890625
6042		-80.078125
6043		-89.843750
6044		-82.031250
6045		-89.843750
6046		-85.937500
6047		-89.843750
6048		-87.890625
6049		-91.796875
6050		-89.843750
6051		-93.750000
6052		-89.843750
6053		-93.750000
6054		-91.796875
6055		-97.656250
6056		-89.843750
6057		-99.609375
6058		-89.843750
6059		-97.656250
6060		-89.843750
6061		-99.609375
6062		-89.843750
6063		-95.703125
6064		-93.750000
6065		-95.703125
6066		-93.750000
6067		-95.703125
6068		-91.796875
6069		-93.750000
6070		-91.796875
6071		-93.750000
6072		-89.843750
6073		-95.703125
6074		-85.937500
6075		-93.750000
6076		-83.984375
6077		-91.796875
6078		-83.984375
6079		-87.890625
6080		-83.984375
6081		-85.937500
6082		-82.031250
6083		-83.984375
6084		-80.078125
6085		-80.078125
6086		-78.125000
6087		-78.125000
6088		-74.218750
6089		-78.125000
6090		-68.359375
6091		-76.171875
6092		-66.406250
6093		-72.265625
6094		-62.500000
6095		-66.406250
6096		-62.500000
6097		-64.453125
6098		-58.593750
6099		-60.546875
6100		-54.687500
6101		-56.640625
6102		-50.781250
6103		-52.734375
6104		-46.875000
6105		-48.828125
6106		-41.015625
6107		-48.828125
6108		-37.109375
6109		-44.921875
6110		-33.203125
6111		-39.062500
6112		-31.250000
6113		-33.203125
6114		-27.343750
6115		-29.296875
6116		-23.437500
6117		-23.437500
6118		-17.578125
6119		-19.531250
6120		-13.671875
6121		-15.625000
6122		-9.765625
6123		-13.671875
6124		-1.953125
6125		-7.812500
6126		1.953125
6127		-3.906250
6128		5.859375
6129		1.953125
6130		7.812500
6131		7.812500
6132		11.718750
6133		11.718750
6134		17.578125
6135		15.625000
6136		21.484375
6137		19.531250
6138		25.390625
6139		23.437500
6140		33.203125
6141		25.390625
6142		37.109375
6143		29.296875
6144		41.015625
6145		33.203125
6146		42.968750
6147		41.015625
6148		46.875000
6149		44.921875
6150		48.828125
6151		48.828125
6152		52.734375
6153		52.734375
6154		56.640625
6155		56.640625
6156		60.546875
6157		56.640625
6158		66.406250
6159		60.546875
6160		68.359375
6161		62.500000
6162		72.265625
6163		68.359375
6164		72.265625
6165		72.265625
6166		76.171875
6167		74.218750
6168		80.078125
6169		76.171875
6170		82.031250
6171		80.078125
6172		83.984375
6173		80.078125
6174		89.843750
6175		80.078125
6176		91.796875
6177		83.984375
6178		93.750000
6179		85.937500
6180		93.750000
6181		89.843750
6182		93.750000
6183		91.796875
6184		95.703125
6185		93.750000
6186		97.656250
6187		95.703125
6188		99.609375
6189		97.656250
6190		99.609375
6191		93.750000
6192		103.515625
6193		95.703125
6194		103.515625
6195		95.703125
6196		105.468750
6197		99.609375
6198		101.562500
6199		99.609375
6200		103.515625
6201		99.609375
6202		103.515625
6203		101.562500
6204		103.515625
6205		99.609375
6206		103.515625
6207		99.609375
6208		101.562500
6209		97.656250
6210		105.468750
6211		97.656250
6212		105.468750
6213		97.656250
6214		101.562500
6215		97.656250
6216		99.609375
6217		95.703125
6218		99.609375
6219		93.750000
6220		97.656250
6221		93.750000
6222		95.703125
6223		91.796875
6224		93.750000
6225		87.890625
6226		93.750000
6227		85.937500
6228		91.796875
6229		85.937500
6230		89.843750
6231		83.984375
6232		85.937500
6233		80.078125
6234		83.984375
6235		78.125000
6236		82.031250
6237		76.171875
6238		80.078125
6239		72.265625
6240		76.171875
6241		70.312500
6242		76.171875
6243		64.453125
6244		72.265625
6245		62.500000
6246		70.312500
6247		58.593750
6248		64.453125
6249		56.640625
6250		60.546875
6251		52.734375
6252		56.640625
6253		48.828125
6254		54.687500
6255		44.921875
6256		50.781250
6257		41.015625
6258		46.875000
6259		37.109375
6260		42.968750
6261		33.203125
6262		39.062500
6263		29.296875
6264		33.203125
6265		23.437500
6266		29.296875
6267		19.531250
6268		25.390625
6269		15.625000
6270		21.484375
6271		9.765625
6272		15.625000
6273		5.859375
6274		11.718750
6275		1.953125
6276		7.812500
6277		-1.953125
6278		3.906250
6279		-5.859375
6280		0.000000
6281		-11.718750
6282		-5.859375
6283		-15.625000
6284		-9.765625
6285		-19.531250
6286		-13.671875
6287		-25.390625
6288		-19.531250
6289		-29.296875
6290		-23.437500
6291		-33.203125
6292		-27.343750
6293		-37.109375
6294		-31.250000
6295		-41.015625
6296		-35.156250
6297		-44.921875
6298		-41.015625
6299		-48.828125
6300		-44.921875
6301		-52.734375
6302		-48.828125
6303		-56.640625
6304		-52.734375
6305		-60.546875
6306		-54.687500
6307		-64.453125
6308		-58.593750
6309		-68.359375
6310		-62.500000
6311		-70.312500
6312		-66.406250
6313		-74.218750
6314		-68.359375
6315		-78.125000
6316		-72.265625
6317		-78.125000
6318		-74.218750
6319		-82.031250
6320		-78.125000
6321		-83.984375
6322		-80.078125
6323		-85.937500
6324		-82.031250
6325		-87.890625
6326		-83.984375
6327		-89.843750
6328		-85.937500
6329		-91.796875
6330		-87.890625
6331		-93.750000
6332		-89.843750
6333		-93.750000
6334		-89.843750
6335		-95.703125
6336		-91.796875
6337		-95.703125
6338		-93.750000
6339		-95.703125
6340		-93.750000
6341		-97.656250
6342		-93.750000
6343		-97.656250
6344		-93.750000
6345		-95.703125
6346		-93.750000
6347		-95.703125
6348		-93.750000
6349		-97.656250
6350		-91.796875
6351		-95.703125
6352		-91.796875
6353		-93.750000
6354		-91.796875
6355		-93.750000
6356		-89.843750
6357		-91.796875
6358		-87.890625
6359		-91.796875
6360		-85.937500
6361		-89.843750
6362		-85.937500
6363		-87.890625
6364		-82.031250
6365		-83.984375
6366		-80.078125
6367		-83.984375
6368		-78.125000
6369		-80.078125
6370		-76.171875
6371		-76.171875
6372		-72.265625
6373		-74.218750
6374		-70.312500
6375		-72.265625
6376		-66.406250
6377		-68.359375
6378		-64.453125
6379		-64.453125
6380		-60.546875
6381		-62.500000
6382		-56.640625
6383		-58.593750
6384		-52.734375
6385		-54.687500
6386		-48.828125
6387		-50.781250
6388		-44.921875
6389		-46.875000
6390		-41.015625
6391		-42.968750
6392		-37.109375
6393		-39.062500
6394		-31.250000
6395		-35.156250
6396		-29.296875
6397		-29.296875
6398		-23.437500
6399		-25.390625
6400		-19.531250
6401		-21.484375
6402		-15.625000
6403		-17.578125
6404		-11.718750
6405		-11.718750
6406		-5.859375
6407		-7.812500
6408		-1.953125
6409		-3.906250
6410		1.953125
6411		0.000000
6412		5.859375
6413		5.859375
6414		11.718750
6415		9.765625
6416		15.625000
6417		13.671875
6418		19.531250
6419		19.531250
6420		23.437500
6421		23.437500
6422		29.296875
6423		27.343750
6424		33.203125
6425		31.250000
6426		37.109375
6427		35.156250
6428		41.015625
6429		39.062500
6430		44.921875
6431		42.968750
6432		48.828125
6433		46.875000
6434		52.734375
6435		50.781250
6436		56.640625
6437		54.687500
6438		58.593750
6439		58.593750
6440		62.500000
6441		60.546875
6442		66.406250
6443		64.453125
6444		70.312500
6445		68.359375
6446		72.265625
6447		70.312500
6448		76.171875
6449		74.218750
6450		80.078125
6451		76.171875
6452		80.078125
6453		80.078125
6454		83.984375
6455		82.031250
6456		85.937500
6457		83.984375
6458		87.890625
6459		83.984375
6460		91.796875
6461		87.890625
6462		91.796875
6463		89.843750
6464		93.750000
6465		91.796875
6466		95.703125
6467		91.796875
6468		97.656250
6469		95.703125
6470		97.656250
6471		95.703125
6472		99.609375
6473		97.656250
6474		99.609375
6475		97.656250
6476		101.562500
6477		97.656250
6478		101.562500
6479		99.609375
6480		101.562500
6481		99.609375
6482		101.562500
6483		99.609375
6484		103.515625
6485		99.609375
6486		103.515625
6487		99.609375
6488		101.562500
6489		99.609375
6490		101.562500
6491		99.609375
6492		101.562500
6493		99.609375
6494		101.562500
6495		97.656250
6496		101.562500
6497		95.703125
6498		99.609375
6499		93.750000
6500		99.609375
6501		93.750000
6502		97.656250
6503		93.750000
6504		95.703125
6505		91.796875
6506		95.703125
6507		89.843750
6508		93.750000
6509		87.890625
6510		91.796875
6511		85.937500
6512		89.843750
6513		83.984375
6514		85.937500
6515		80.078125
6516		83.984375
6517		78.125000
6518		82.031250
6519		76.171875
6520		80.078125
6521		72.265625
6522		76.171875
6523		70.312500
6524		74.218750
6525		66.406250
6526		70.312500
6527		62.500000
6528		68.359375
6529		60.546875
6530		64.453125
6531		56.640625
6532		60.546875
6533		52.734375
6534		58.593750
6535		48.828125
6536		54.687500
6537		44.921875
6538		50.781250
6539		41.015625
6540		46.875000
6541		37.109375
6542		42.968750
6543		33.203125
6544		39.062500
6545		29.296875
6546		35.156250
6547		25.390625
6548		31.250000
6549		19.531250
6550		25.390625
6551		15.625000
6552		21.484375
6553		11.718750
6554		17.578125
6555		7.812500
6556		13.671875
6557		1.953125
6558		7.812500
6559		-1.953125
6560		3.906250
6561		-5.859375
6562		0.000000
6563		-11.718750
6564		-5.859375
6565		-15.625000
6566		-9.765625
6567		-19.531250
6568		-13.671875
6569		-23.437500
6570		-17.578125
6571		-29.296875
6572		-23.437500
6573		-33.203125
6574		-27.343750
6575		-37.109375
6576		-31.250000
6577		-41.015625
6578		-35.156250
6579		-44.921875
6580		-39.062500
6581		-48.828125
6582		-42.968750
6583		-52.734375
6584		-46.875000
6585		-56.640625
6586		-50.781250
6587		-60.546875
6588		-54.687500
6589		-64.453125
6590		-58.593750
6591		-66.406250
6592		-62.500000
6593		-70.312500
6594		-64.453125
6595		-72.265625
6596		-68.359375
6597		-76.171875
6598		-72.265625
6599		-78.125000
6600		-74.218750
6601		-82.031250
6602		-76.171875
6603		-83.984375
6604		-80.078125
6605		-85.937500
6606		-82.031250
6607		-87.890625
6608		-83.984375
6609		-89.843750
6610		-85.937500
6611		-91.796875
6612		-87.890625
6613		-91.796875
6614		-89.843750
6615		-93.750000
6616		-89.843750
6617		-93.750000
6618		-91.796875
6619		-95.703125
6620		-93.750000
6621		-95.703125
6622		-93.750000
6623		-95.703125
6624		-93.750000
6625		-95.703125
6626		-93.750000
6627		-97.656250
6628		-91.796875
6629		-95.703125
6630		-93.750000
6631		-95.703125
6632		-91.796875
6633		-95.703125
6634		-91.796875
6635		-93.750000
6636		-91.796875
6637		-93.750000
6638		-89.843750
6639		-91.796875
6640		-87.890625
6641		-89.843750
6642		-85.937500
6643		-87.890625
6644		-83.984375
6645		-87.890625
6646		-82.031250
6647		-83.984375
6648		-80.078125
6649		-82.031250
6650		-78.125000
6651		-80.078125
6652		-76.171875
6653		-76.171875
6654		-72.265625
6655		-74.218750
6656		-70.312500
6657		-72.265625
6658		-66.406250
6659		-68.359375
6660		-64.453125
6661		-66.406250
6662		-58.593750
6663		-62.500000
6664		-56.640625
6665		-58.593750
6666		-52.734375
6667		-54.687500
6668		-48.828125
6669		-50.781250
6670		-44.921875
6671		-46.875000
6672		-41.015625
6673		-42.968750
6674		-37.109375
6675		-39.062500
6676		-33.203125
6677		-35.156250
6678		-27.343750
6679		-31.250000
6680		-23.437500
6681		-25.390625
6682		-19.531250
6683		-21.484375
6684		-15.625000
6685		-17.578125
6686		-11.718750
6687		-11.718750
6688		-7.812500
6689		-7.812500
6690		-1.953125
6691		-3.906250
6692		1.953125
6693		0.000000
6694		5.859375
6695		1.953125
6696		11.718750
6697		7.812500
6698		15.625000
6699		13.671875
6700		19.531250
6701		17.578125
6702		23.437500
6703		23.437500
6704		27.343750
6705		27.343750
6706		31.250000
6707		31.250000
6708		37.109375
6709		35.156250
6710		41.015625
6711		39.062500
6712		44.921875
6713		42.968750
6714		48.828125
6715		46.875000
6716		50.781250
6717		50.781250
6718		54.687500
6719		54.687500
6720		58.593750
6721		56.640625
6722		62.500000
6723		60.546875
6724		66.406250
6725		64.453125
6726		68.359375
6727		66.406250
6728		74.218750
6729		68.359375
6730		76.171875
6731		70.312500
6732		78.125000
6733		76.171875
6734		80.078125
6735		78.125000
6736		82.031250
6737		82.031250
6738		85.937500
6739		83.984375
6740		87.890625
6741		85.937500
6742		89.843750
6743		87.890625
6744		91.796875
6745		87.890625
6746		93.750000
6747		89.843750
6748		95.703125
6749		93.750000
6750		95.703125
6751		93.750000
6752		97.656250
6753		95.703125
6754		99.609375
6755		97.656250
6756		99.609375
6757		97.656250
6758		99.609375
6759		99.609375
6760		101.562500
6761		97.656250
6762		103.515625
6763		97.656250
6764		103.515625
6765		99.609375
6766		101.562500
6767		99.609375
6768		101.562500
6769		99.609375
6770		101.562500
6771		99.609375
6772		101.562500
6773		99.609375
6774		101.562500
6775		97.656250
6776		101.562500
6777		97.656250
6778		101.562500
6779		95.703125
6780		101.562500
6781		95.703125
6782		99.609375
6783		93.750000
6784		97.656250
6785		93.750000
6786		95.703125
6787		91.796875
6788		93.750000
6789		89.843750
6790		91.796875
6791		87.890625
6792		89.843750
6793		85.937500
6794		89.843750
6795		82.031250
6796		87.890625
6797		80.078125
6798		85.937500
6799		78.125000
6800		82.031250
6801		76.171875
6802		80.078125
6803		72.265625
6804		76.171875
6805		70.312500
6806		74.218750
6807		66.406250
6808		70.312500
6809		62.500000
6810		68.359375
6811		58.593750
6812		64.453125
6813		54.687500
6814		62.500000
6815		52.734375
6816		58.593750
6817		48.828125
6818		54.687500
6819		44.921875
6820		50.781250
6821		41.015625
6822		46.875000
6823		37.109375
6824		42.968750
6825		33.203125
6826		39.062500
6827		29.296875
6828		35.156250
6829		25.390625
6830		31.250000
6831		19.531250
6832		25.390625
6833		15.625000
6834		21.484375
6835		11.718750
6836		17.578125
6837		7.812500
6838		13.671875
6839		1.953125
6840		7.812500
6841		-1.953125
6842		3.906250
6843		-5.859375
6844		0.000000
6845		-11.718750
6846		-5.859375
6847		-15.625000
6848		-9.765625
6849		-19.531250
6850		-13.671875
6851		-23.437500
6852		-17.578125
6853		-29.296875
6854		-23.437500
6855		-33.203125
6856		-27.343750
6857		-37.109375
6858		-31.250000
6859		-41.015625
6860		-35.156250
6861		-44.921875
6862		-39.062500
6863		-48.828125
6864		-42.968750
6865		-52.734375
6866		-46.875000
6867		-56.640625
6868		-50.781250
6869		-60.546875
6870		-54.687500
6871		-64.453125
6872		-58.593750
6873		-66.406250
6874		-62.500000
6875		-70.312500
6876		-66.406250
6877		-72.265625
6878		-68.359375
6879		-76.171875
6880		-72.265625
6881		-78.125000
6882		-74.218750
6883		-82.031250
6884		-78.125000
6885		-83.984375
6886		-80.078125
6887		-85.937500
6888		-82.031250
6889		-87.890625
6890		-83.984375
6891		-89.843750
6892		-85.937500
6893		-91.796875
6894		-87.890625
6895		-93.750000
6896		-89.843750
6897		-93.750000
6898		-91.796875
6899		-95.703125
6900		-91.796875
6901		-95.703125
6902		-93.750000
6903		-95.703125
6904		-93.750000
6905		-97.656250
6906		-93.750000
6907		-95.703125
6908		-95.703125
6909		-97.656250
6910		-93.750000
6911		-95.703125
6912		-93.750000
6913		-95.703125
6914		-93.750000
6915		-95.703125
6916		-93.750000
6917		-95.703125
6918		-91.796875
6919		-93.750000
6920		-91.796875
6921		-91.796875
6922		-89.843750
6923		-91.796875
6924		-87.890625
6925		-89.843750
6926		-85.937500
6927		-87.890625
6928		-83.984375
6929		-85.937500
6930		-82.031250
6931		-83.984375
6932		-80.078125
6933		-80.078125
6934		-76.171875
6935		-78.125000
6936		-74.218750
6937		-76.171875
6938		-70.312500
6939		-72.265625
6940		-68.359375
6941		-70.312500
6942		-64.453125
6943		-66.406250
6944		-62.500000
6945		-62.500000
6946		-58.593750
6947		-58.593750
6948		-54.687500
6949		-56.640625
6950		-50.781250
6951		-50.781250
6952		-46.875000
6953		-48.828125
6954		-42.968750
6955		-42.968750
6956		-39.062500
6957		-39.062500
6958		-33.203125
6959		-35.156250
6960		-29.296875
6961		-31.250000
6962		-25.390625
6963		-27.343750
6964		-21.484375
6965		-21.484375
6966		-17.578125
6967		-17.578125
6968		-11.718750
6969		-13.671875
6970		-7.812500
6971		-9.765625
6972		-3.906250
6973		-5.859375
6974		0.000000
6975		0.000000
6976		5.859375
6977		3.906250
6978		9.765625
6979		7.812500
6980		13.671875
6981		13.671875
6982		19.531250
6983		17.578125
6984		23.437500
6985		21.484375
6986		27.343750
6987		25.390625
6988		31.250000
6989		29.296875
6990		35.156250
6991		35.156250
6992		39.062500
6993		39.062500
6994		42.968750
6995		42.968750
6996		46.875000
6997		44.921875
6998		50.781250
6999		50.781250
7000		54.687500
7001		52.734375
7002		58.593750
7003		56.640625
7004		62.500000
7005		60.546875
7006		64.453125
7007		62.500000
7008		68.359375
7009		66.406250
7010		72.265625
7011		70.312500
7012		74.218750
7013		72.265625
7014		78.125000
7015		76.171875
7016		80.078125
7017		78.125000
7018		82.031250
7019		80.078125
7020		85.937500
7021		83.984375
7022		85.937500
7023		85.937500
7024		89.843750
7025		87.890625
7026		91.796875
7027		89.843750
7028		93.750000
7029		91.796875
7030		93.750000
7031		93.750000
7032		95.703125
7033		93.750000
7034		97.656250
7035		95.703125
7036		99.609375
7037		97.656250
7038		99.609375
7039		97.656250
7040		101.562500
7041		99.609375
7042		101.562500
7043		99.609375
7044		101.562500
7045		99.609375
7046		101.562500
7047		99.609375
7048		101.562500
7049		99.609375
7050		101.562500
7051		99.609375
7052		101.562500
7053		99.609375
7054		101.562500
7055		99.609375
7056		101.562500
7057		99.609375
7058		101.562500
7059		97.656250
7060		101.562500
7061		97.656250
7062		99.609375
7063		95.703125
7064		99.609375
7065		95.703125
7066		97.656250
7067		93.750000
7068		95.703125
7069		91.796875
7070		95.703125
7071		89.843750
7072		93.750000
7073		87.890625
7074		91.796875
7075		85.937500
7076		89.843750
7077		83.984375
7078		87.890625
7079		82.031250
7080		85.937500
7081		78.125000
7082		82.031250
7083		76.171875
7084		80.078125
7085		72.265625
7086		78.125000
7087		70.312500
7088		74.218750
7089		68.359375
7090		72.265625
7091		64.453125
7092		68.359375
7093		60.546875
7094		66.406250
7095		56.640625
7096		62.500000
7097		52.734375
7098		58.593750
7099		48.828125
7100		54.687500
7101		46.875000
7102		50.781250
7103		42.968750
7104		46.875000
7105		39.062500
7106		42.968750
7107		33.203125
7108		39.062500
7109		29.296875
7110		35.156250
7111		25.390625
7112		31.250000
7113		21.484375
7114		27.343750
7115		17.578125
7116		23.437500
7117		11.718750
7118		17.578125
7119		7.812500
7120		13.671875
7121		3.906250
7122		9.765625
7123		0.000000
7124		3.906250
7125		-5.859375
7126		0.000000
7127		-9.765625
7128		-3.906250
7129		-13.671875
7130		-7.812500
7131		-19.531250
7132		-13.671875
7133		-23.437500
7134		-17.578125
7135		-27.343750
7136		-21.484375
7137		-31.250000
7138		-25.390625
7139		-35.156250
7140		-31.250000
7141		-39.062500
7142		-35.156250
7143		-42.968750
7144		-39.062500
7145		-48.828125
7146		-42.968750
7147		-52.734375
7148		-46.875000
7149		-56.640625
7150		-50.781250
7151		-58.593750
7152		-54.687500
7153		-62.500000
7154		-58.593750
7155		-66.406250
7156		-62.500000
7157		-70.312500
7158		-64.453125
7159		-72.265625
7160		-68.359375
7161		-76.171875
7162		-70.312500
7163		-78.125000
7164		-74.218750
7165		-80.078125
7166		-76.171875
7167		-83.984375
7168		-80.078125
7169		-85.937500
7170		-82.031250
7171		-87.890625
7172		-83.984375
7173		-89.843750
7174		-85.937500
7175		-91.796875
7176		-87.890625
7177		-91.796875
7178		-89.843750
7179		-93.750000
7180		-89.843750
7181		-93.750000
7182		-91.796875
7183		-95.703125
7184		-93.750000
7185		-95.703125
7186		-93.750000
7187		-95.703125
7188		-93.750000
7189		-95.703125
7190		-93.750000
7191		-95.703125
7192		-93.750000
7193		-95.703125
7194		-93.750000
7195		-95.703125
7196		-93.750000
7197		-95.703125
7198		-93.750000
7199		-95.703125
7200		-91.796875
7201		-93.750000
7202		-89.843750
7203		-91.796875
7204		-89.843750
7205		-91.796875
7206		-87.890625
7207		-89.843750
7208		-85.937500
7209		-87.890625
7210		-83.984375
7211		-85.937500
7212		-82.031250
7213		-83.984375
7214		-80.078125
7215		-82.031250
7216		-76.171875
7217		-78.125000
7218		-74.218750
7219		-76.171875
7220		-72.265625
7221		-72.265625
7222		-68.359375
7223		-70.312500
7224		-64.453125
7225		-66.406250
7226		-62.500000
7227		-62.500000
7228		-58.593750
7229		-58.593750
7230		-54.687500
7231		-56.640625
7232		-50.781250
7233		-52.734375
7234		-46.875000
7235		-48.828125
7236		-42.968750
7237		-44.921875
7238		-39.062500
7239		-41.015625
7240		-35.156250
7241		-35.156250
7242		-31.250000
7243		-31.250000
7244		-25.390625
7245		-27.343750
7246		-21.484375
7247		-23.437500
7248		-17.578125
7249		-19.531250
7250		-13.671875
7251		-13.671875
7252		-7.812500
7253		-9.765625
7254		-3.906250
7255		-5.859375
7256		0.000000
7257		-1.953125
7258		3.906250
7259		3.906250
7260		9.765625
7261		7.812500
7262		13.671875
7263		11.718750
7264		17.578125
7265		17.578125
7266		23.437500
7267		21.484375
7268		27.343750
7269		25.390625
7270		31.250000
7271		29.296875
7272		35.156250
7273		33.203125
7274		39.062500
7275		37.109375
7276		42.968750
7277		41.015625
7278		46.875000
7279		44.921875
7280		50.781250
7281		48.828125
7282		54.687500
7283		52.734375
7284		56.640625
7285		56.640625
7286		60.546875
7287		60.546875
7288		64.453125
7289		62.500000
7290		68.359375
7291		66.406250
7292		70.312500
7293		68.359375
7294		74.218750
7295		72.265625
7296		76.171875
7297		74.218750
7298		80.078125
7299		78.125000
7300		82.031250
7301		80.078125
7302		83.984375
7303		82.031250
7304		85.937500
7305		85.937500
7306		87.890625
7307		87.890625
7308		89.843750
7309		89.843750
7310		91.796875
7311		89.843750
7312		93.750000
7313		91.796875
7314		95.703125
7315		93.750000
7316		97.656250
7317		95.703125
7318		97.656250
7319		95.703125
7320		99.609375
7321		97.656250
7322		99.609375
7323		97.656250
7324		101.562500
7325		97.656250
7326		101.562500
7327		99.609375
7328		101.562500
7329		99.609375
7330		101.562500
7331		99.609375
7332		101.562500
7333		99.609375
7334		101.562500
7335		99.609375
7336		101.562500
7337		99.609375
7338		101.562500
7339		97.656250
7340		101.562500
7341		97.656250
7342		99.609375
7343		95.703125
7344		99.609375
7345		95.703125
7346		97.656250
7347		93.750000
7348		97.656250
7349		91.796875
7350		95.703125
7351		91.796875
7352		93.750000
7353		89.843750
7354		91.796875
7355		87.890625
7356		91.796875
7357		85.937500
7358		89.843750
7359		83.984375
7360		87.890625
7361		80.078125
7362		83.984375
7363		78.125000
7364		82.031250
7365		76.171875
7366		80.078125
7367		72.265625
7368		78.125000
7369		70.312500
7370		74.218750
7371		66.406250
7372		70.312500
7373		62.500000
7374		68.359375
7375		60.546875
7376		64.453125
7377		56.640625
7378		60.546875
7379		52.734375
7380		58.593750
7381		48.828125
7382		54.687500
7383		44.921875
7384		50.781250
7385		41.015625
7386		46.875000
7387		37.109375
7388		42.968750
7389		33.203125
7390		39.062500
7391		29.296875
7392		35.156250
7393		25.390625
7394		31.250000
7395		19.531250
7396		25.390625
7397		15.625000
7398		21.484375
7399		11.718750
7400		17.578125
7401		7.812500
7402		13.671875
7403		3.906250
7404		9.765625
7405		-1.953125
7406		3.906250
7407		-5.859375
7408		0.000000
7409		-9.765625
7410		-3.906250
7411		-15.625000
7412		-7.812500
7413		-19.531250
7414		-13.671875
7415		-23.437500
7416		-17.578125
7417		-27.343750
7418		-21.484375
7419		-31.250000
7420		-27.343750
7421		-37.109375
7422		-31.250000
7423		-41.015625
7424		-35.156250
7425		-44.921875
7426		-39.062500
7427		-48.828125
7428		-42.968750
7429		-52.734375
7430		-46.875000
7431		-56.640625
7432		-50.781250
7433		-60.546875
7434		-54.687500
7435		-62.500000
7436		-58.593750
7437		-66.406250
7438		-62.500000
7439		-70.312500
7440		-64.453125
7441		-72.265625
7442		-68.359375
7443		-76.171875
7444		-70.312500
7445		-78.125000
7446		-74.218750
7447		-82.031250
7448		-78.125000
7449		-83.984375
7450		-80.078125
7451		-85.937500
7452		-82.031250
7453		-87.890625
7454		-83.984375
7455		-89.843750
7456		-85.937500
7457		-91.796875
7458		-87.890625
7459		-93.750000
7460		-89.843750
7461		-93.750000
7462		-91.796875
7463		-95.703125
7464		-91.796875
7465		-95.703125
7466		-93.750000
7467		-95.703125
7468		-93.750000
7469		-97.656250
7470		-93.750000
7471		-97.656250
7472		-95.703125
7473		-97.656250
7474		-95.703125
7475		-97.656250
7476		-93.750000
7477		-95.703125
7478		-93.750000
7479		-95.703125
7480		-93.750000
7481		-95.703125
7482		-91.796875
7483		-93.750000
7484		-91.796875
7485		-93.750000
7486		-89.843750
7487		-91.796875
7488		-87.890625
7489		-89.843750
7490		-85.937500
7491		-87.890625
7492		-83.984375
7493		-85.937500
7494		-82.031250
7495		-83.984375
7496		-80.078125
7497		-82.031250
7498		-78.125000
7499		-80.078125
7500		-74.218750
7501		-76.171875
7502		-72.265625
7503		-74.218750
7504		-68.359375
7505		-70.312500
7506		-64.453125
7507		-66.406250
7508		-62.500000
7509		-64.453125
7510		-58.593750
7511		-60.546875
7512		-54.687500
7513		-56.640625
7514		-50.781250
7515		-52.734375
7516		-46.875000
7517		-48.828125
7518		-42.968750
7519		-44.921875
7520		-39.062500
7521		-41.015625
7522		-35.156250
7523		-37.109375
7524		-31.250000
7525		-31.250000
7526		-27.343750
7527		-27.343750
7528		-23.437500
7529		-23.437500
7530		-17.578125
7531		-19.531250
7532		-13.671875
7533		-15.625000
7534		-9.765625
7535		-9.765625
7536		-5.859375
7537		-5.859375
7538		0.000000
7539		-1.953125
7540		3.906250
7541		3.906250
7542		9.765625
7543		7.812500
7544		13.671875
7545		11.718750
7546		17.578125
7547		15.625000
7548		21.484375
7549		19.531250
7550		25.390625
7551		25.390625
7552		31.250000
7553		29.296875
7554		35.156250
7555		33.203125
7556		39.062500
7557		37.109375
7558		42.968750
7559		41.015625
7560		46.875000
7561		44.921875
7562		50.781250
7563		48.828125
7564		54.687500
7565		52.734375
7566		56.640625
7567		56.640625
7568		60.546875
7569		58.593750
7570		64.453125
7571		62.500000
7572		68.359375
7573		66.406250
7574		70.312500
7575		68.359375
7576		74.218750
7577		72.265625
7578		76.171875
7579		74.218750
7580		80.078125
7581		78.125000
7582		82.031250
7583		80.078125
7584		83.984375
7585		82.031250
7586		85.937500
7587		85.937500
7588		87.890625
7589		85.937500
7590		89.843750
7591		87.890625
7592		93.750000
7593		89.843750
7594		93.750000
7595		91.796875
7596		95.703125
7597		93.750000
7598		97.656250
7599		95.703125
7600		97.656250
7601		95.703125
7602		99.609375
7603		97.656250
7604		99.609375
7605		97.656250
7606		99.609375
7607		97.656250
7608		101.562500
7609		99.609375
7610		101.562500
7611		99.609375
7612		101.562500
7613		99.609375
7614		101.562500
7615		99.609375
7616		101.562500
7617		99.609375
7618		101.562500
7619		99.609375
7620		101.562500
7621		97.656250
7622		101.562500
7623		97.656250
7624		99.609375
7625		95.703125
7626		99.609375
7627		95.703125
7628		97.656250
7629		93.750000
7630		97.656250
7631		93.750000
7632		95.703125
7633		91.796875
7634		95.703125
7635		89.843750
7636		93.750000
7637		87.890625
7638		91.796875
7639		85.937500
7640		89.843750
7641		83.984375
7642		87.890625
7643		82.031250
7644		85.937500
7645		78.125000
7646		82.031250
7647		76.171875
7648		80.078125
7649		74.218750
7650		78.125000
7651		70.312500
7652		74.218750
7653		68.359375
7654		72.265625
7655		64.453125
7656		68.359375
7657		60.546875
7658		66.406250
7659		56.640625
7660		62.500000
7661		54.687500
7662		58.593750
7663		50.781250
7664		54.687500
7665		46.875000
7666		52.734375
7667		42.968750
7668		46.875000
7669		39.062500
7670		42.968750
7671		35.156250
7672		39.062500
7673		29.296875
7674		35.156250
7675		25.390625
7676		31.250000
7677		19.531250
7678		27.343750
7679		17.578125
7680		23.437500
7681		13.671875
7682		19.531250
7683		7.812500
7684		13.671875
7685		3.906250
7686		9.765625
7687		0.000000
7688		5.859375
7689		-7.812500
7690		0.000000
7691		-9.765625
7692		-3.906250
7693		-15.625000
7694		-7.812500
7695		-17.578125
7696		-11.718750
7697		-25.390625
7698		-17.578125
7699		-27.343750
7700		-21.484375
7701		-31.250000
7702		-25.390625
7703		-37.109375
7704		-29.296875
7705		-39.062500
7706		-33.203125
7707		-44.921875
7708		-37.109375
7709		-48.828125
7710		-42.968750
7711		-52.734375
7712		-46.875000
7713		-54.687500
7714		-50.781250
7715		-58.593750
7716		-52.734375
7717		-62.500000
7718		-56.640625
7719		-66.406250
7720		-60.546875
7721		-70.312500
7722		-64.453125
7723		-72.265625
7724		-66.406250
7725		-76.171875
7726		-70.312500
7727		-78.125000
7728		-74.218750
7729		-80.078125
7730		-74.218750
7731		-83.984375
7732		-78.125000
7733		-85.937500
7734		-82.031250
7735		-87.890625
7736		-83.984375
7737		-89.843750
7738		-85.937500
7739		-93.750000
7740		-85.937500
7741		-91.796875
7742		-87.890625
7743		-93.750000
7744		-91.796875
7745		-95.703125
7746		-91.796875
7747		-95.703125
7748		-93.750000
7749		-97.656250
7750		-91.796875
7751		-97.656250
7752		-93.750000
7753		-97.656250
7754		-93.750000
7755		-99.609375
7756		-91.796875
7757		-99.609375
7758		-93.750000
7759		-97.656250
7760		-93.750000
7761		-97.656250
7762		-91.796875
7763		-97.656250
7764		-89.843750
7765		-99.609375
7766		-87.890625
7767		-93.750000
7768		-89.843750
7769		-91.796875
7770		-87.890625
7771		-91.796875
7772		-85.937500
7773		-89.843750
7774		-83.984375
7775		-87.890625
7776		-82.031250
7777		-83.984375
7778		-80.078125
7779		-83.984375
7780		-74.218750
7781		-80.078125
7782		-72.265625
7783		-76.171875
7784		-72.265625
7785		-74.218750
7786		-70.312500
7787		-70.312500
7788		-66.406250
7789		-68.359375
7790		-60.546875
7791		-64.453125
7792		-58.593750
7793		-60.546875
7794		-56.640625
7795		-56.640625
7796		-48.828125
7797		-56.640625
7798		-48.828125
7799		-50.781250
7800		-42.968750
7801		-44.921875
7802		-39.062500
7803		-41.015625
7804		-35.156250
7805		-39.062500
7806		-29.296875
7807		-37.109375
7808		-27.343750
7809		-29.296875
7810		-23.437500
7811		-23.437500
7812		-17.578125
7813		-23.437500
7814		-11.718750
7815		-17.578125
7816		-5.859375
7817		-11.718750
7818		-5.859375
7819		-5.859375
7820		-1.953125
7821		-1.953125
7822		3.906250
7823		0.000000
7824		7.812500
7825		3.906250
7826		11.718750
7827		9.765625
7828		15.625000
7829		13.671875
7830		25.390625
7831		15.625000
7832		25.390625
7833		21.484375
7834		29.296875
7835		27.343750
7836		33.203125
7837		33.203125
7838		39.062500
7839		35.156250
7840		44.921875
7841		41.015625
7842		46.875000
7843		44.921875
7844		48.828125
7845		46.875000
7846		56.640625
7847		48.828125
7848		58.593750
7849		52.734375
7850		62.500000
7851		58.593750
7852		62.500000
7853		62.500000
7854		66.406250
7855		64.453125
7856		70.312500
7857		66.406250
7858		76.171875
7859		70.312500
7860		76.171875
7861		74.218750
7862		78.125000
7863		74.218750
7864		83.984375
7865		78.125000
7866		85.937500
7867		82.031250
7868		85.937500
7869		83.984375
7870		87.890625
7871		85.937500
7872		89.843750
7873		85.937500
7874		95.703125
7875		89.843750
7876		95.703125
7877		89.843750
7878		95.703125
7879		91.796875
7880		99.609375
7881		91.796875
7882		101.562500
7883		93.750000
7884		101.562500
7885		97.656250
7886		99.609375
7887		97.656250
7888		101.562500
7889		95.703125
7890		103.515625
7891		95.703125
7892		103.515625
7893		99.609375
7894		101.562500
7895		97.656250
7896		101.562500
7897		95.703125
7898		105.468750
7899		97.656250
7900		103.515625
7901		99.609375
7902		101.562500
7903		97.656250
7904		101.562500
7905		95.703125
7906		101.562500
7907		93.750000
7908		101.562500
7909		93.750000
7910		99.609375
7911		93.750000
7912		97.656250
7913		89.843750
7914		97.656250
7915		89.843750
7916		97.656250
7917		87.890625
7918		95.703125
7919		87.890625
7920		91.796875
7921		85.937500
7922		89.843750
7923		82.031250
7924		87.890625
7925		80.078125
7926		85.937500
7927		78.125000
7928		82.031250
7929		74.218750
7930		80.078125
7931		72.265625
7932		80.078125
7933		68.359375
7934		76.171875
7935		68.359375
7936		72.265625
7937		64.453125
7938		68.359375
7939		60.546875
7940		66.406250
7941		56.640625
7942		64.453125
7943		54.687500
7944		60.546875
7945		50.781250
7946		54.687500
7947		46.875000
7948		52.734375
7949		41.015625
7950		46.875000
7951		39.062500
7952		44.921875
7953		35.156250
7954		39.062500
7955		29.296875
7956		35.156250
7957		23.437500
7958		31.250000
7959		21.484375
7960		27.343750
7961		17.578125
7962		23.437500
7963		11.718750
7964		19.531250
7965		7.812500
7966		13.671875
7967		3.906250
7968		9.765625
7969		0.000000
7970		5.859375
7971		-5.859375
7972		0.000000
7973		-9.765625
7974		-3.906250
7975		-15.625000
7976		-7.812500
7977		-17.578125
7978		-11.718750
7979		-23.437500
7980		-17.578125
7981		-27.343750
7982		-19.531250
7983		-31.250000
7984		-25.390625
7985		-35.156250
7986		-29.296875
7987		-39.062500
7988		-35.156250
7989		-42.968750
7990		-37.109375
7991		-46.875000
7992		-42.968750
7993		-50.781250
7994		-46.875000
7995		-54.687500
7996		-50.781250
7997		-58.593750
7998		-54.687500
7999		-62.500000
8000		-58.593750
8001		-66.406250
8002		-60.546875
8003		-68.359375
8004		-64.453125
8005		-74.218750
8006		-68.359375
8007		-76.171875
8008		-70.312500
8009		-78.125000
8010		-74.218750
8011		-82.031250
8012		-76.171875
8013		-83.984375
8014		-80.078125
8015		-85.937500
8016		-82.031250
8017		-87.890625
8018		-83.984375
8019		-89.843750
8020		-85.937500
8021		-91.796875
8022		-87.890625
8023		-93.750000
8024		-87.890625
8025		-95.703125
8026		-89.843750
8027		-95.703125
8028		-89.843750
8029		-97.656250
8030		-91.796875
8031		-97.656250
8032		-91.796875
8033		-99.609375
8034		-93.750000
8035		-97.656250
8036		-93.750000
8037		-97.656250
8038		-95.703125
8039		-97.656250
8040		-93.750000
8041		-97.656250
8042		-93.750000
8043		-97.656250
8044		-91.796875
8045		-97.656250
8046		-91.796875
8047		-95.703125
8048		-89.843750
8049		-93.750000
8050		-89.843750
8051		-93.750000
8052		-87.890625
8053		-89.843750
8054		-87.890625
8055		-87.890625
8056		-85.937500
8057		-87.890625
8058		-82.031250
8059		-85.937500
8060		-80.078125
8061		-83.984375
8062		-76.171875
8063		-82.031250
8064		-74.218750
8065		-78.125000
8066		-72.265625
8067		-76.171875
8068		-68.359375
8069		-70.312500
8070		-66.406250
8071		-68.359375
8072		-62.500000
8073		-64.453125
8074		-58.593750
8075		-62.500000
8076		-54.687500
8077		-58.593750
8078		-50.781250
8079		-54.687500
8080		-46.875000
8081		-50.781250
8082		-42.968750
8083		-46.875000
8084		-39.062500
8085		-42.968750
8086		-37.109375
8087		-37.109375
8088		-31.250000
8089		-33.203125
8090		-27.343750
8091		-29.296875
8092		-23.437500
8093		-25.390625
8094		-19.531250
8095		-21.484375
8096		-13.671875
8097		-15.625000
8098		-9.765625
8099		-11.718750
8100		-5.859375
8101		-7.812500
8102		0.000000
8103		-1.953125
8104		3.906250
8105		1.953125
8106		7.812500
8107		5.859375
8108		11.718750
8109		9.765625
8110		15.625000
8111		13.671875
8112		21.484375
8113		17.578125
8114		25.390625
8115		23.437500
8116		29.296875
8117		27.343750
8118		35.156250
8119		31.250000
8120		37.109375
8121		35.156250
8122		41.015625
8123		39.062500
8124		46.875000
8125		42.968750
8126		48.828125
8127		46.875000
8128		52.734375
8129		50.781250
8130		56.640625
8131		52.734375
8132		60.546875
8133		58.593750
8134		64.453125
8135		62.500000
8136		66.406250
8137		64.453125
8138		70.312500
8139		68.359375
8140		72.265625
8141		70.312500
8142		76.171875
8143		74.218750
8144		78.125000
8145		76.171875
8146		83.984375
8147		78.125000
8148		85.937500
8149		82.031250
8150		85.937500
8151		83.984375
8152		89.843750
8153		85.937500
8154		89.843750
8155		87.890625
8156		91.796875
8157		89.843750
8158		93.750000
8159		91.796875
8160		95.703125
8161		93.750000
8162		95.703125
8163		93.750000
8164		99.609375
8165		95.703125
8166		99.609375
8167		97.656250
8168		101.562500
8169		97.656250
8170		101.562500
8171		97.656250
8172		101.562500
8173		97.656250
8174		103.515625
8175		99.609375
8176		101.562500
8177		99.609375
8178		101.562500
8179		97.656250
8180		103.515625
8181		99.609375
8182		101.562500
8183		99.609375
8184		101.562500
8185		97.656250
8186		101.562500
8187		97.656250
8188		99.609375
8189		97.656250
8190		99.609375
8191		93.750000
8192		99.609375
8193		93.750000
8194		97.656250
8195		93.750000
8196		97.656250
8197		89.843750
8198		95.703125
8199		89.843750
8200		93.750000
8201		87.890625
8202		91.796875
8203		85.937500
8204		89.843750
8205		83.984375
8206		87.890625
8207		82.031250
8208		85.937500
8209		80.078125
8210		83.984375
8211		76.171875
8212		82.031250
8213		74.218750
8214		78.125000
8215		70.312500
8216		76.171875
8217		66.406250
8218		72.265625
8219		64.453125
8220		70.312500
8221		60.546875
8222		66.406250
8223		58.593750
8224		62.500000
8225		54.687500
8226		60.546875
8227		50.781250
8228		56.640625
8229		46.875000
8230		52.734375
8231		42.968750
8232		48.828125
8233		39.062500
8234		44.921875
8235		35.156250
8236		41.015625
8237		31.250000
8238		37.109375
8239		25.390625
8240		31.250000
8241		21.484375
8242		27.343750
8243		17.578125
8244		23.437500
8245		13.671875
8246		19.531250
8247		7.812500
8248		15.625000
8249		3.906250
8250		9.765625
8251		0.000000
8252		7.812500
8253		-3.906250
8254		1.953125
8255		-7.812500
8256		-3.906250
8257		-13.671875
8258		-7.812500
8259		-19.531250
8260		-11.718750
8261		-21.484375
8262		-15.625000
8263		-27.343750
8264		-21.484375
8265		-31.250000
8266		-25.390625
8267		-35.156250
8268		-29.296875
8269		-41.015625
8270		-33.203125
8271		-42.968750
8272		-37.109375
8273		-46.875000
8274		-42.968750
8275		-52.734375
8276		-46.875000
8277		-56.640625
8278		-48.828125
8279		-58.593750
8280		-52.734375
8281		-62.500000
8282		-56.640625
8283		-66.406250
8284		-60.546875
8285		-68.359375
8286		-64.453125
8287		-72.265625
8288		-66.406250
8289		-76.171875
8290		-70.312500
8291		-78.125000
8292		-74.218750
8293		-80.078125
8294		-76.171875
8295		-83.984375
8296		-78.125000
8297		-85.937500
8298		-82.031250
8299		-87.890625
8300		-83.984375
8301		-89.843750
8302		-85.937500
8303		-91.796875
8304		-87.890625
8305		-93.750000
8306		-89.843750
8307		-93.750000
8308		-91.796875
8309		-95.703125
8310		-91.796875
8311		-97.656250
8312		-93.750000
8313		-97.656250
8314		-93.750000
8315		-97.656250
8316		-95.703125
8317		-97.656250
8318		-93.750000
8319		-97.656250
8320		-95.703125
8321		-99.609375
8322		-95.703125
8323		-97.656250
8324		-95.703125
8325		-97.656250
8326		-93.750000
8327		-97.656250
8328		-91.796875
8329		-95.703125
8330		-91.796875
8331		-93.750000
8332		-91.796875
8333		-93.750000
8334		-89.843750
8335		-91.796875
8336		-87.890625
8337		-89.843750
8338		-85.937500
8339		-87.890625
8340		-83.984375
8341		-85.937500
8342		-80.078125
8343		-83.984375
8344		-78.125000
8345		-82.031250
8346		-76.171875
8347		-78.125000
8348		-74.218750
8349		-76.171875
8350		-70.312500
8351		-72.265625
8352		-68.359375
8353		-68.359375
8354		-62.500000
8355		-66.406250
8356		-60.546875
8357		-62.500000
8358		-56.640625
8359		-60.546875
8360		-52.734375
8361		-54.687500
8362		-48.828125
8363		-50.781250
8364		-44.921875
8365		-46.875000
8366		-41.015625
8367		-42.968750
8368		-37.109375
8369		-39.062500
8370		-33.203125
8371		-35.156250
8372		-29.296875
8373		-31.250000
8374		-25.390625
8375		-25.390625
8376		-19.531250
8377		-21.484375
8378		-15.625000
8379		-17.578125
8380		-11.718750
8381		-13.671875
8382		-7.812500
8383		-7.812500
8384		-1.953125
8385		-3.906250
8386		1.953125
8387		0.000000
8388		5.859375
8389		3.906250
8390		9.765625
8391		9.765625
8392		15.625000
8393		13.671875
8394		19.531250
8395		17.578125
8396		23.437500
8397		21.484375
8398		27.343750
8399		27.343750
8400		31.250000
8401		31.250000
8402		35.156250
8403		35.156250
8404		41.015625
8405		37.109375
8406		44.921875
8407		42.968750
8408		48.828125
8409		46.875000
8410		50.781250
8411		50.781250
8412		54.687500
8413		54.687500
8414		58.593750
8415		56.640625
8416		62.500000
8417		60.546875
8418		64.453125
8419		64.453125
8420		68.359375
8421		66.406250
8422		72.265625
8423		70.312500
8424		74.218750
8425		74.218750
8426		78.125000
8427		76.171875
8428		80.078125
8429		78.125000
8430		82.031250
8431		80.078125
8432		83.984375
8433		82.031250
8434		87.890625
8435		85.937500
8436		89.843750
8437		85.937500
8438		91.796875
8439		89.843750
8440		91.796875
8441		91.796875
8442		93.750000
8443		91.796875
8444		95.703125
8445		93.750000
8446		97.656250
8447		93.750000
8448		99.609375
8449		95.703125
8450		99.609375
8451		97.656250
8452		99.609375
8453		97.656250
8454		101.562500
8455		97.656250
8456		101.562500
8457		99.609375
8458		101.562500
8459		97.656250
8460		101.562500
8461		99.609375
8462		101.562500
8463		97.656250
8464		101.562500
8465		99.609375
8466		101.562500
8467		97.656250
8468		101.562500
8469		97.656250
8470		99.609375
8471		95.703125
8472		99.609375
8473		95.703125
8474		97.656250
8475		95.703125
8476		97.656250
8477		93.750000
8478		97.656250
8479		91.796875
8480		95.703125
8481		89.843750
8482		93.750000
8483		87.890625
8484		91.796875
8485		85.937500
8486		89.843750
8487		83.984375
8488		87.890625
8489		82.031250
8490		85.937500
8491		80.078125
8492		83.984375
8493		76.171875
8494		82.031250
8495		74.218750
8496		78.125000
8497		70.312500
8498		76.171875
8499		68.359375
8500		72.265625
8501		64.453125
8502		70.312500
8503		60.546875
8504		66.406250
8505		58.593750
8506		64.453125
8507		54.687500
8508		60.546875
8509		48.828125
8510		56.640625
8511		46.875000
8512		52.734375
8513		42.968750
8514		48.828125
8515		39.062500
8516		44.921875
8517		35.156250
8518		41.015625
8519		31.250000
8520		37.109375
8521		27.343750
8522		33.203125
8523		23.437500
8524		29.296875
8525		19.531250
8526		25.390625
8527		13.671875
8528		19.531250
8529		9.765625
8530		15.625000
8531		5.859375
8532		11.718750
8533		0.000000
8534		7.812500
8535		-3.906250
8536		1.953125
8537		-7.812500
8538		-1.953125
8539		-11.718750
8540		-5.859375
8541		-17.578125
8542		-11.718750
8543		-21.484375
8544		-15.625000
8545		-25.390625
8546		-19.531250
8547		-31.250000
8548		-23.437500
8549		-35.156250
8550		-29.296875
8551		-39.062500
8552		-33.203125
8553		-42.968750
8554		-37.109375
8555		-46.875000
8556		-41.015625
8557		-50.781250
8558		-44.921875
8559		-54.687500
8560		-48.828125
8561		-58.593750
8562		-52.734375
8563		-62.500000
8564		-56.640625
8565		-64.453125
8566		-60.546875
8567		-68.359375
8568		-64.453125
8569		-72.265625
8570		-66.406250
8571		-76.171875
8572		-70.312500
8573		-76.171875
8574		-72.265625
8575		-80.078125
8576		-76.171875
8577		-83.984375
8578		-78.125000
8579		-85.937500
8580		-80.078125
8581		-87.890625
8582		-82.031250
8583		-89.843750
8584		-85.937500
8585		-91.796875
8586		-87.890625
8587		-93.750000
8588		-87.890625
8589		-93.750000
8590		-89.843750
8591		-93.750000
8592		-91.796875
8593		-95.703125
8594		-91.796875
8595		-97.656250
8596		-93.750000
8597		-97.656250
8598		-93.750000
8599		-97.656250
8600		-93.750000
8601		-97.656250
8602		-95.703125
8603		-97.656250
8604		-93.750000
8605		-97.656250
8606		-93.750000
8607		-97.656250
8608		-93.750000
8609		-95.703125
8610		-93.750000
8611		-95.703125
8612		-91.796875
8613		-93.750000
8614		-89.843750
8615		-93.750000
8616		-87.890625
8617		-91.796875
8618		-87.890625
8619		-89.843750
8620		-85.937500
8621		-87.890625
8622		-83.984375
8623		-85.937500
8624		-82.031250
8625		-83.984375
8626		-80.078125
8627		-80.078125
8628		-76.171875
8629		-78.125000
8630		-74.218750
8631		-76.171875
8632		-70.312500
8633		-72.265625
8634		-66.406250
8635		-68.359375
8636		-64.453125
8637		-66.406250
8638		-60.546875
8639		-62.500000
8640		-56.640625
8641		-58.593750
8642		-52.734375
8643		-54.687500
8644		-48.828125
8645		-52.734375
8646		-44.921875
8647		-46.875000
8648		-41.015625
8649		-42.968750
8650		-37.109375
8651		-39.062500
8652		-33.203125
8653		-35.156250
8654		-29.296875
8655		-31.250000
8656		-25.390625
8657		-27.343750
8658		-21.484375
8659		-21.484375
8660		-15.625000
8661		-17.578125
8662		-11.718750
8663		-13.671875
8664		-7.812500
8665		-9.765625
8666		-1.953125
8667		-3.906250
8668		1.953125
8669		0.000000
8670		5.859375
8671		3.906250
8672		11.718750
8673		9.765625
8674		15.625000
8675		13.671875
8676		19.531250
8677		17.578125
8678		23.437500
8679		21.484375
8680		27.343750
8681		25.390625
8682		33.203125
8683		31.250000
8684		37.109375
8685		35.156250
8686		41.015625
8687		37.109375
8688		44.921875
8689		42.968750
8690		48.828125
8691		46.875000
8692		50.781250
8693		48.828125
8694		54.687500
8695		52.734375
8696		58.593750
8697		56.640625
8698		62.500000
8699		60.546875
8700		66.406250
8701		62.500000
8702		70.312500
8703		66.406250
8704		72.265625
8705		70.312500
8706		74.218750
8707		72.265625
8708		78.125000
8709		76.171875
8710		80.078125
8711		78.125000
8712		83.984375
8713		80.078125
8714		85.937500
8715		83.984375
8716		87.890625
8717		85.937500
8718		89.843750
8719		87.890625
8720		91.796875
8721		89.843750
8722		93.750000
8723		91.796875
8724		95.703125
8725		93.750000
8726		95.703125
8727		93.750000
8728		97.656250
8729		93.750000
8730		97.656250
8731		95.703125
8732		99.609375
8733		95.703125
8734		101.562500
8735		97.656250
8736		101.562500
8737		97.656250
8738		101.562500
8739		99.609375
8740		101.562500
8741		97.656250
8742		101.562500
8743		99.609375
8744		101.562500
8745		99.609375
8746		101.562500
8747		97.656250
8748		101.562500
8749		97.656250
8750		101.562500
8751		97.656250
8752		99.609375
8753		97.656250
8754		99.609375
8755		95.703125
8756		99.609375
8757		93.750000
8758		97.656250
8759		93.750000
8760		95.703125
8761		91.796875
8762		95.703125
8763		89.843750
8764		93.750000
8765		87.890625
8766		91.796875
8767		85.937500
8768		91.796875
8769		83.984375
8770		87.890625
8771		82.031250
8772		87.890625
8773		80.078125
8774		83.984375
8775		76.171875
8776		82.031250
8777		74.218750
8778		78.125000
8779		72.265625
8780		76.171875
8781		68.359375
8782		74.218750
8783		66.406250
8784		70.312500
8785		62.500000
8786		66.406250
8787		58.593750
8788		64.453125
8789		54.687500
8790		60.546875
8791		50.781250
8792		56.640625
8793		48.828125
8794		52.734375
8795		42.968750
8796		48.828125
8797		39.062500
8798		44.921875
8799		35.156250
8800		41.015625
8801		31.250000
8802		37.109375
8803		27.343750
8804		33.203125
8805		23.437500
8806		29.296875
8807		19.531250
8808		25.390625
8809		13.671875
8810		19.531250
8811		9.765625
8812		15.625000
8813		5.859375
8814		11.718750
8815		1.953125
8816		5.859375
8817		-3.906250
8818		1.953125
8819		-7.812500
8820		-1.953125
8821		-11.718750
8822		-5.859375
8823		-17.578125
8824		-9.765625
8825		-21.484375
8826		-15.625000
8827		-25.390625
8828		-19.531250
8829		-29.296875
8830		-23.437500
8831		-33.203125
8832		-29.296875
8833		-39.062500
8834		-33.203125
8835		-42.968750
8836		-37.109375
8837		-46.875000
8838		-41.015625
8839		-50.781250
8840		-44.921875
8841		-54.687500
8842		-48.828125
8843		-58.593750
8844		-52.734375
8845		-60.546875
8846		-56.640625
8847		-64.453125
8848		-60.546875
8849		-68.359375
8850		-62.500000
8851		-72.265625
8852		-66.406250
8853		-76.171875
8854		-70.312500
8855		-78.125000
8856		-72.265625
8857		-80.078125
8858		-76.171875
8859		-82.031250
8860		-78.125000
8861		-85.937500
8862		-82.031250
8863		-87.890625
8864		-82.031250
8865		-89.843750
8866		-85.937500
8867		-89.843750
8868		-87.890625
8869		-91.796875
8870		-89.843750
8871		-93.750000
8872		-89.843750
8873		-95.703125
8874		-91.796875
8875		-95.703125
8876		-91.796875
8877		-97.656250
8878		-93.750000
8879		-97.656250
8880		-93.750000
8881		-97.656250
8882		-93.750000
8883		-97.656250
8884		-95.703125
8885		-97.656250
8886		-95.703125
8887		-97.656250
8888		-93.750000
8889		-97.656250
8890		-93.750000
8891		-97.656250
8892		-93.750000
8893		-95.703125
8894		-91.796875
8895		-95.703125
8896		-91.796875
8897		-93.750000
8898		-89.843750
8899		-91.796875
8900		-87.890625
8901		-89.843750
8902		-85.937500
8903		-87.890625
8904		-83.984375
8905		-85.937500
8906		-82.031250
8907		-83.984375
8908		-80.078125
8909		-82.031250
8910		-76.171875
8911		-78.125000
8912		-74.218750
8913		-76.171875
8914		-70.312500
8915		-72.265625
8916		-68.359375
8917		-70.312500
8918		-64.453125
8919		-66.406250
8920		-60.546875
8921		-62.500000
8922		-56.640625
8923		-58.593750
8924		-54.687500
8925		-56.640625
8926		-50.781250
8927		-50.781250
8928		-46.875000
8929		-46.875000
8930		-42.968750
8931		-44.921875
8932		-37.109375
8933		-39.062500
8934		-33.203125
8935		-35.156250
8936		-29.296875
8937		-31.250000
8938		-25.390625
8939		-27.343750
8940		-21.484375
8941		-21.484375
8942		-15.625000
8943		-19.531250
8944		-11.718750
8945		-13.671875
8946		-7.812500
8947		-9.765625
8948		-3.906250
8949		-3.906250
8950		1.953125
8951		0.000000
8952		5.859375
8953		3.906250
8954		11.718750
8955		9.765625
8956		13.671875
8957		11.718750
8958		19.531250
8959		17.578125
8960		23.437500
8961		21.484375
8962		27.343750
8963		25.390625
8964		33.203125
8965		31.250000
8966		37.109375
8967		35.156250
8968		39.062500
8969		37.109375
8970		42.968750
8971		42.968750
8972		46.875000
8973		46.875000
8974		50.781250
8975		50.781250
8976		56.640625
8977		54.687500
8978		58.593750
8979		56.640625
8980		62.500000
8981		60.546875
8982		66.406250
8983		64.453125
8984		68.359375
8985		68.359375
8986		72.265625
8987		70.312500
8988		74.218750
8989		72.265625
8990		78.125000
8991		76.171875
8992		80.078125
8993		78.125000
8994		82.031250
8995		82.031250
8996		83.984375
8997		83.984375
8998		87.890625
8999		85.937500
9000		89.843750
9001		87.890625
9002		91.796875
9003		89.843750
9004		93.750000
9005		91.796875
9006		95.703125
9007		91.796875
9008		95.703125
9009		93.750000
9010		97.656250
9011		95.703125
9012		99.609375
9013		95.703125
9014		99.609375
9015		97.656250
9016		101.562500
9017		97.656250
9018		101.562500
9019		99.609375
9020		101.562500
9021		99.609375
9022		101.562500
9023		99.609375
9024		103.515625
9025		99.609375
9026		103.515625
9027		99.609375
9028		103.515625
9029		99.609375
9030		101.562500
9031		97.656250
9032		101.562500
9033		97.656250
9034		101.562500
9035		97.656250
9036		99.609375
9037		95.703125
9038		99.609375
9039		95.703125
9040		97.656250
9041		93.750000
9042		97.656250
9043		91.796875
9044		95.703125
9045		91.796875
9046		93.750000
9047		87.890625
9048		91.796875
9049		85.937500
9050		91.796875
9051		85.937500
9052		87.890625
9053		82.031250
9054		87.890625
9055		80.078125
9056		83.984375
9057		78.125000
9058		82.031250
9059		74.218750
9060		80.078125
9061		72.265625
9062		76.171875
9063		70.312500
9064		74.218750
9065		66.406250
9066		70.312500
9067		62.500000
9068		68.359375
9069		58.593750
9070		64.453125
9071		56.640625
9072		60.546875
9073		50.781250
9074		58.593750
9075		48.828125
9076		54.687500
9077		44.921875
9078		50.781250
9079		41.015625
9080		46.875000
9081		37.109375
9082		42.968750
9083		33.203125
9084		39.062500
9085		27.343750
9086		35.156250
9087		25.390625
9088		29.296875
9089		19.531250
9090		25.390625
9091		15.625000
9092		21.484375
9093		11.718750
9094		17.578125
9095		7.812500
9096		11.718750
9097		1.953125
9098		7.812500
9099		-1.953125
9100		3.906250
9101		-7.812500
9102		0.000000
9103		-11.718750
9104		-5.859375
9105		-15.625000
9106		-9.765625
9107		-19.531250
9108		-13.671875
9109		-23.437500
9110		-17.578125
9111		-29.296875
9112		-21.484375
9113		-33.203125
9114		-27.343750
9115		-37.109375
9116		-31.250000
9117		-41.015625
9118		-35.156250
9119		-46.875000
9120		-39.062500
9121		-48.828125
9122		-42.968750
9123		-52.734375
9124		-48.828125
9125		-56.640625
9126		-50.781250
9127		-60.546875
9128		-54.687500
9129		-64.453125
9130		-58.593750
9131		-68.359375
9132		-62.500000
9133		-70.312500
9134		-64.453125
9135		-74.218750
9136		-68.359375
9137		-76.171875
9138		-72.265625
9139		-78.125000
9140		-74.218750
9141		-82.031250
9142		-76.171875
9143		-85.937500
9144		-80.078125
9145		-85.937500
9146		-82.031250
9147		-87.890625
9148		-83.984375
9149		-89.843750
9150		-85.937500
9151		-91.796875
9152		-87.890625
9153		-93.750000
9154		-89.843750
9155		-93.750000
9156		-91.796875
9157		-95.703125
9158		-91.796875
9159		-95.703125
9160		-91.796875
9161		-97.656250
9162		-93.750000
9163		-97.656250
9164		-93.750000
9165		-97.656250
9166		-93.750000
9167		-97.656250
9168		-93.750000
9169		-97.656250
9170		-93.750000
9171		-95.703125
9172		-93.750000
9173		-95.703125
9174		-93.750000
9175		-95.703125
9176		-91.796875
9177		-93.750000
9178		-89.843750
9179		-91.796875
9180		-89.843750
9181		-91.796875
9182		-87.890625
9183		-89.843750
9184		-85.937500
9185		-87.890625
9186		-83.984375
9187		-85.937500
9188		-82.031250
9189		-82.031250
9190		-78.125000
9191		-80.078125
9192		-76.171875
9193		-78.125000
9194		-74.218750
9195		-76.171875
9196		-70.312500
9197		-72.265625
9198		-68.359375
9199		-68.359375
9200		-64.453125
9201		-66.406250
9202		-60.546875
9203		-62.500000
9204		-56.640625
9205		-58.593750
9206		-52.734375
9207		-54.687500
9208		-50.781250
9209		-50.781250
9210		-44.921875
9211		-46.875000
9212		-42.968750
9213		-42.968750
9214		-37.109375
9215		-39.062500
9216		-31.250000
9217		-37.109375
9218		-29.296875
9219		-31.250000
9220		-25.390625
9221		-27.343750
9222		-21.484375
9223		-23.437500
9224		-15.625000
9225		-17.578125
9226		-11.718750
9227		-13.671875
9228		-5.859375
9229		-9.765625
9230		-3.906250
9231		-3.906250
9232		1.953125
9233		0.000000
9234		5.859375
9235		3.906250
9236		9.765625
9237		9.765625
9238		13.671875
9239		11.718750
9240		19.531250
9241		17.578125
9242		23.437500
9243		21.484375
9244		27.343750
9245		25.390625
9246		31.250000
9247		29.296875
9248		35.156250
9249		33.203125
9250		41.015625
9251		37.109375
9252		42.968750
9253		42.968750
9254		46.875000
9255		44.921875
9256		50.781250
9257		50.781250
9258		54.687500
9259		52.734375
9260		58.593750
9261		56.640625
9262		62.500000
9263		60.546875
9264		64.453125
9265		64.453125
9266		68.359375
9267		66.406250
9268		72.265625
9269		70.312500
9270		74.218750
9271		72.265625
9272		78.125000
9273		76.171875
9274		80.078125
9275		78.125000
9276		82.031250
9277		80.078125
9278		85.937500
9279		82.031250
9280		85.937500
9281		85.937500
9282		89.843750
9283		87.890625
9284		91.796875
9285		89.843750
9286		93.750000
9287		89.843750
9288		93.750000
9289		91.796875
9290		95.703125
9291		93.750000
9292		97.656250
9293		95.703125
9294		99.609375
9295		95.703125
9296		99.609375
9297		97.656250
9298		99.609375
9299		97.656250
9300		101.562500
9301		97.656250
9302		101.562500
9303		99.609375
9304		101.562500
9305		99.609375
9306		101.562500
9307		99.609375
9308		101.562500
9309		99.609375
9310		101.562500
9311		97.656250
9312		103.515625
9313		99.609375
9314		101.562500
9315		97.656250
9316		101.562500
9317		95.703125
9318		101.562500
9319		95.703125
9320		99.609375
9321		95.703125
9322		97.656250
9323		93.750000
9324		97.656250
9325		91.796875
9326		95.703125
9327		91.796875
9328		93.750000
9329		87.890625
9330		93.750000
9331		87.890625
9332		91.796875
9333		83.984375
9334		89.843750
9335		82.031250
9336		87.890625
9337		80.078125
9338		83.984375
9339		78.125000
9340		82.031250
9341		74.218750
9342		80.078125
9343		72.265625
9344		78.125000
9345		68.359375
9346		74.218750
9347		66.406250
9348		70.312500
9349		62.500000
9350		68.359375
9351		58.593750
9352		64.453125
9353		56.640625
9354		60.546875
9355		52.734375
9356		58.593750
9357		48.828125
9358		54.687500
9359		44.921875
9360		50.781250
9361		41.015625
9362		46.875000
9363		37.109375
9364		42.968750
9365		33.203125
9366		39.062500
9367		29.296875
9368		35.156250
9369		25.390625
9370		31.250000
9371		19.531250
9372		25.390625
9373		15.625000
9374		21.484375
9375		11.718750
9376		17.578125
9377		7.812500
9378		13.671875
9379		1.953125
9380		7.812500
9381		-1.953125
9382		3.906250
9383		-5.859375
9384		0.000000
9385		-9.765625
9386		-3.906250
9387		-15.625000
9388		-9.765625
9389		-19.531250
9390		-13.671875
9391		-23.437500
9392		-17.578125
9393		-29.296875
9394		-23.437500
9395		-33.203125
9396		-27.343750
9397		-37.109375
9398		-29.296875
9399		-41.015625
9400		-35.156250
9401		-44.921875
9402		-39.062500
9403		-48.828125
9404		-42.968750
9405		-52.734375
9406		-46.875000
9407		-56.640625
9408		-50.781250
9409		-60.546875
9410		-54.687500
9411		-64.453125
9412		-58.593750
9413		-68.359375
9414		-62.500000
9415		-70.312500
9416		-66.406250
9417		-74.218750
9418		-68.359375
9419		-76.171875
9420		-72.265625
9421		-80.078125
9422		-74.218750
9423		-82.031250
9424		-76.171875
9425		-83.984375
9426		-80.078125
9427		-85.937500
9428		-82.031250
9429		-89.843750
9430		-83.984375
9431		-89.843750
9432		-85.937500
9433		-91.796875
9434		-87.890625
9435		-93.750000
9436		-89.843750
9437		-93.750000
9438		-89.843750
9439		-95.703125
9440		-91.796875
9441		-95.703125
9442		-93.750000
9443		-97.656250
9444		-93.750000
9445		-97.656250
9446		-93.750000
9447		-97.656250
9448		-93.750000
9449		-97.656250
9450		-95.703125
9451		-97.656250
9452		-93.750000
9453		-97.656250
9454		-93.750000
9455		-95.703125
9456		-91.796875
9457		-95.703125
9458		-91.796875
9459		-95.703125
9460		-91.796875
9461		-93.750000
9462		-89.843750
9463		-91.796875
9464		-87.890625
9465		-89.843750
9466		-85.937500
9467		-87.890625
9468		-83.984375
9469		-87.890625
9470		-82.031250
9471		-83.984375
9472		-80.078125
9473		-82.031250
9474		-78.125000
9475		-78.125000
9476		-74.218750
9477		-76.171875
9478		-72.265625
9479		-74.218750
9480		-68.359375
9481		-70.312500
9482		-64.453125
9483		-66.406250
9484		-62.500000
9485		-62.500000
9486		-58.593750
9487		-60.546875
9488		-54.687500
9489		-56.640625
9490		-50.781250
9491		-52.734375
9492		-46.875000
9493		-48.828125
9494		-42.968750
9495		-44.921875
9496		-39.062500
9497		-41.015625
9498		-35.156250
9499		-35.156250
9500		-31.250000
9501		-31.250000
9502		-25.390625
9503		-27.343750
9504		-21.484375
9505		-23.437500
9506		-17.578125
9507		-19.531250
9508		-13.671875
9509		-13.671875
9510		-7.812500
9511		-9.765625
9512		-3.906250
9513		-5.859375
9514		0.000000
9515		0.000000
9516		5.859375
9517		3.906250
9518		9.765625
9519		7.812500
9520		13.671875
9521		11.718750
9522		17.578125
9523		17.578125
9524		23.437500
9525		21.484375
9526		27.343750
9527		25.390625
9528		31.250000
9529		29.296875
9530		35.156250
9531		33.203125
9532		39.062500
9533		37.109375
9534		42.968750
9535		41.015625
9536		48.828125
9537		44.921875
9538		50.781250
9539		48.828125
9540		54.687500
9541		52.734375
9542		58.593750
9543		56.640625
9544		62.500000
9545		60.546875
9546		64.453125
9547		62.500000
9548		68.359375
9549		66.406250
9550		72.265625
9551		70.312500
9552		74.218750
9553		70.312500
9554		78.125000
9555		74.218750
9556		80.078125
9557		78.125000
9558		82.031250
9559		80.078125
9560		83.984375
9561		82.031250
9562		85.937500
9563		83.984375
9564		89.843750
9565		85.937500
9566		89.843750
9567		89.843750
9568		91.796875
9569		89.843750
9570		95.703125
9571		91.796875
9572		97.656250
9573		91.796875
9574		99.609375
9575		95.703125
9576		97.656250
9577		93.750000
9578		99.609375
9579		95.703125
9580		103.515625
9581		97.656250
9582		103.515625
9583		99.609375
9584		101.562500
9585		99.609375
9586		103.515625
9587		97.656250
9588		103.515625
9589		97.656250
9590		105.468750
9591		97.656250
9592		103.515625
9593		97.656250
9594		103.515625
9595		97.656250
9596		101.562500
9597		97.656250
9598		103.515625
9599		97.656250
9600		99.609375
9601		95.703125
9602		99.609375
9603		93.750000
9604		99.609375
9605		91.796875
9606		99.609375
9607		89.843750
9608		99.609375
9609		89.843750
9610		97.656250
9611		87.890625
9612		95.703125
9613		85.937500
9614		93.750000
9615		83.984375
9616		91.796875
9617		83.984375
9618		87.890625
9619		78.125000
9620		85.937500
9621		76.171875
9622		83.984375
9623		74.218750
9624		82.031250
9625		70.312500
9626		80.078125
9627		68.359375
9628		76.171875
9629		64.453125
9630		72.265625
9631		62.500000
9632		70.312500
9633		60.546875
9634		64.453125
9635		56.640625
9636		62.500000
9637		50.781250
9638		60.546875
9639		46.875000
9640		56.640625
9641		42.968750
9642		52.734375
9643		41.015625
9644		48.828125
9645		35.156250
9646		44.921875
9647		31.250000
9648		41.015625
9649		29.296875
9650		37.109375
9651		25.390625
9652		31.250000
9653		19.531250
9654		27.343750
9655		15.625000
9656		25.390625
9657		9.765625
9658		19.531250
9659		7.812500
9660		15.625000
9661		1.953125
9662		11.718750
9663		-3.906250
9664		7.812500
9665		-5.859375
9666		1.953125
9667		-9.765625
9668		-3.906250
9669		-15.625000
9670		-7.812500
9671		-19.531250
9672		-11.718750
9673		-25.390625
9674		-15.625000
9675		-29.296875
9676		-19.531250
9677		-33.203125
9678		-25.390625
9679		-39.062500
9680		-29.296875
9681		-42.968750
9682		-33.203125
9683		-44.921875
9684		-39.062500
9685		-48.828125
9686		-42.968750
9687		-54.687500
9688		-46.875000
9689		-56.640625
9690		-48.828125
9691		-62.500000
9692		-52.734375
9693		-64.453125
9694		-56.640625
9695		-70.312500
9696		-58.593750
9697		-72.265625
9698		-62.500000
9699		-72.265625
9700		-66.406250
9701		-76.171875
9702		-70.312500
9703		-80.078125
9704		-74.218750
9705		-82.031250
9706		-76.171875
9707		-83.984375
9708		-78.125000
9709		-85.937500
9710		-80.078125
9711		-89.843750
9712		-83.984375
9713		-91.796875
9714		-83.984375
9715		-91.796875
9716		-85.937500
9717		-91.796875
9718		-89.843750
9719		-93.750000
9720		-89.843750
9721		-97.656250
9722		-89.843750
9723		-97.656250
9724		-89.843750
9725		-99.609375
9726		-91.796875
9727		-99.609375
9728		-91.796875
9729		-99.609375
9730		-91.796875
9731		-99.609375
9732		-91.796875
9733		-97.656250
9734		-91.796875
9735		-95.703125
9736		-93.750000
9737		-97.656250
9738		-89.843750
9739		-97.656250
9740		-89.843750
9741		-97.656250
9742		-87.890625
9743		-95.703125
9744		-87.890625
9745		-93.750000
9746		-85.937500
9747		-91.796875
9748		-83.984375
9749		-89.843750
9750		-82.031250
9751		-85.937500
9752		-82.031250
9753		-83.984375
9754		-78.125000
9755		-83.984375
9756		-76.171875
9757		-82.031250
9758		-72.265625
9759		-78.125000
9760		-70.312500
9761		-76.171875
9762		-66.406250
9763		-72.265625
9764		-62.500000
9765		-68.359375
9766		-60.546875
9767		-62.500000
9768		-58.593750
9769		-60.546875
9770		-54.687500
9771		-56.640625
9772		-48.828125
9773		-54.687500
9774		-44.921875
9775		-50.781250
9776		-41.015625
9777		-46.875000
9778		-37.109375
9779		-42.968750
9780		-33.203125
9781		-37.109375
9782		-29.296875
9783		-33.203125
9784		-27.343750
9785		-27.343750
9786		-21.484375
9787		-23.437500
9788		-15.625000
9789		-21.484375
9790		-11.718750
9791		-17.578125
9792		-7.812500
9793		-11.718750
9794		-3.906250
9795		-7.812500
9796		1.953125
9797		-3.906250
9798		5.859375
9799		1.953125
9800		9.765625
9801		7.812500
9802		13.671875
9803		11.718750
9804		17.578125
9805		15.625000
9806		23.437500
9807		17.578125
9808		27.343750
9809		23.437500
9810		33.203125
9811		27.343750
9812		35.156250
9813		31.250000
9814		41.015625
9815		35.156250
9816		44.921875
9817		39.062500
9818		46.875000
9819		44.921875
9820		50.781250
9821		48.828125
9822		56.640625
9823		50.781250
9824		58.593750
9825		52.734375
9826		62.500000
9827		56.640625
9828		66.406250
9829		60.546875
9830		68.359375
9831		64.453125
9832		72.265625
9833		66.406250
9834		74.218750
9835		72.265625
9836		76.171875
9837		74.218750
9838		80.078125
9839		74.218750
9840		82.031250
9841		78.125000
9842		85.937500
9843		80.078125
9844		87.890625
9845		82.031250
9846		89.843750
9847		83.984375
9848		91.796875
9849		85.937500
9850		93.750000
9851		89.843750
9852		93.750000
9853		91.796875
9854		95.703125
9855		91.796875
9856		97.656250
9857		93.750000
9858		99.609375
9859		93.750000
9860		101.562500
9861		93.750000
9862		101.562500
9863		95.703125
9864		101.562500
9865		95.703125
9866		103.515625
9867		97.656250
9868		103.515625
9869		99.609375
9870		101.562500
9871		97.656250
9872		103.515625
9873		97.656250
9874		103.515625
9875		95.703125
9876		103.515625
9877		95.703125
9878		103.515625
9879		95.703125
9880		101.562500
9881		95.703125
9882		101.562500
9883		93.750000
9884		101.562500
9885		95.703125
9886		97.656250
9887		93.750000
9888		97.656250
9889		89.843750
9890		97.656250
9891		89.843750
9892		95.703125
9893		87.890625
9894		95.703125
9895		85.937500
9896		93.750000
9897		83.984375
9898		91.796875
9899		82.031250
9900		89.843750
9901		80.078125
9902		85.937500
9903		78.125000
9904		82.031250
9905		74.218750
9906		80.078125
9907		70.312500
9908		80.078125
9909		68.359375
9910		76.171875
9911		64.453125
9912		74.218750
9913		60.546875
9914		70.312500
9915		58.593750
9916		66.406250
9917		56.640625
9918		64.453125
9919		52.734375
9920		58.593750
9921		48.828125
9922		54.687500
9923		44.921875
9924		52.734375
9925		39.062500
9926		48.828125
9927		35.156250
9928		44.921875
9929		31.250000
9930		41.015625
9931		27.343750
9932		37.109375
9933		23.437500
9934		33.203125
9935		21.484375
9936		27.343750
9937		17.578125
9938		21.484375
9939		9.765625
9940		17.578125
9941		5.859375
9942		15.625000
9943		1.953125
9944		11.718750
9945		-3.906250
9946		7.812500
9947		-7.812500
9948		1.953125
9949		-11.718750
9950		-1.953125
9951		-13.671875
9952		-7.812500
9953		-19.531250
9954		-13.671875
9955		-23.437500
9956		-17.578125
9957		-29.296875
9958		-19.531250
9959		-33.203125
9960		-23.437500
9961		-39.062500
9962		-27.343750
9963		-42.968750
9964		-33.203125
9965		-46.875000
9966		-37.109375
9967		-50.781250
9968		-41.015625
9969		-52.734375
9970		-46.875000
9971		-56.640625
9972		-50.781250
9973		-62.500000
9974		-54.687500
9975		-64.453125
9976		-54.687500
9977		-68.359375
9978		-60.546875
9979		-72.265625
9980		-62.500000
9981		-74.218750
9982		-66.406250
9983		-78.125000
9984		-68.359375
9985		-78.125000
9986		-72.265625
9987		-82.031250
9988		-78.125000
9989		-85.937500
9990		-80.078125
9991		-87.890625
9992		-80.078125
9993		-89.843750
9994		-82.031250
9995		-91.796875
9996		-83.984375
9997		-93.750000
9998		-85.937500
9999		-95.703125
10000		-87.890625
