Channel              :		CH1
Frequency            :		1.061kHz
Period               :		0.942ms
PK-PK                :		146.5mV
Probe attenuation    :		1X
Voltage per ADC value:		0.122070mV
Time interval        :		2.00000us

index		CH1_Voltage(mV)
1		50.781250
2		50.781250
3		42.968750
4		50.781250
5		42.968750
6		48.828125
7		41.015625
8		48.828125
9		39.062500
10		46.875000
11		39.062500
12		42.968750
13		37.109375
14		41.015625
15		33.203125
16		41.015625
17		33.203125
18		39.062500
19		31.250000
20		37.109375
21		29.296875
22		35.156250
23		27.343750
24		33.203125
25		27.343750
26		33.203125
27		25.390625
28		29.296875
29		23.437500
30		27.343750
31		19.531250
32		27.343750
33		19.531250
34		25.390625
35		15.625000
36		23.437500
37		13.671875
38		23.437500
39		13.671875
40		19.531250
41		11.718750
42		17.578125
43		11.718750
44		15.625000
45		9.765625
46		13.671875
47		5.859375
48		11.718750
49		3.906250
50		11.718750
51		1.953125
52		9.765625
53		0.000000
54		7.812500
55		-1.953125
56		5.859375
57		-3.906250
58		3.906250
59		-3.906250
60		1.953125
61		-3.906250
62		-1.953125
63		-5.859375
64		-3.906250
65		-9.765625
66		-3.906250
67		-11.718750
68		-3.906250
69		-13.671875
70		-7.812500
71		-15.625000
72		-7.812500
73		-17.578125
74		-9.765625
75		-19.531250
76		-11.718750
77		-19.531250
78		-15.625000
79		-21.484375
80		-17.578125
81		-25.390625
82		-17.578125
83		-27.343750
84		-19.531250
85		-27.343750
86		-21.484375
87		-29.296875
88		-23.437500
89		-31.250000
90		-23.437500
91		-33.203125
92		-25.390625
93		-33.203125
94		-27.343750
95		-33.203125
96		-31.250000
97		-37.109375
98		-31.250000
99		-39.062500
100		-31.250000
101		-41.015625
102		-33.203125
103		-42.968750
104		-35.156250
105		-42.968750
106		-37.109375
107		-44.921875
108		-37.109375
109		-44.921875
110		-39.062500
111		-44.921875
112		-41.015625
113		-46.875000
114		-42.968750
115		-48.828125
116		-42.968750
117		-50.781250
118		-42.968750
119		-50.781250
120		-44.921875
121		-52.734375
122		-44.921875
123		-54.687500
124		-46.875000
125		-54.687500
126		-46.875000
127		-54.687500
128		-50.781250
129		-54.687500
130		-50.781250
131		-56.640625
132		-50.781250
133		-58.593750
134		-50.781250
135		-58.593750
136		-52.734375
137		-60.546875
138		-52.734375
139		-60.546875
140		-52.734375
141		-60.546875
142		-54.687500
143		-60.546875
144		-54.687500
145		-58.593750
146		-56.640625
147		-60.546875
148		-56.640625
149		-62.500000
150		-54.687500
151		-62.500000
152		-56.640625
153		-62.500000
154		-56.640625
155		-62.500000
156		-56.640625
157		-64.453125
158		-56.640625
159		-64.453125
160		-56.640625
161		-62.500000
162		-58.593750
163		-62.500000
164		-58.593750
165		-64.453125
166		-56.640625
167		-64.453125
168		-56.640625
169		-64.453125
170		-56.640625
171		-64.453125
172		-56.640625
173		-64.453125
174		-56.640625
175		-62.500000
176		-54.687500
177		-62.500000
178		-56.640625
179		-60.546875
180		-56.640625
181		-62.500000
182		-56.640625
183		-60.546875
184		-54.687500
185		-60.546875
186		-54.687500
187		-60.546875
188		-52.734375
189		-58.593750
190		-52.734375
191		-58.593750
192		-52.734375
193		-58.593750
194		-50.781250
195		-54.687500
196		-52.734375
197		-54.687500
198		-50.781250
199		-54.687500
200		-48.828125
201		-54.687500
202		-48.828125
203		-54.687500
204		-46.875000
205		-52.734375
206		-46.875000
207		-50.781250
208		-44.921875
209		-50.781250
210		-42.968750
211		-48.828125
212		-44.921875
213		-46.875000
214		-42.968750
215		-46.875000
216		-41.015625
217		-46.875000
218		-39.062500
219		-44.921875
220		-37.109375
221		-42.968750
222		-37.109375
223		-42.968750
224		-35.156250
225		-41.015625
226		-33.203125
227		-39.062500
228		-33.203125
229		-35.156250
230		-33.203125
231		-35.156250
232		-31.250000
233		-35.156250
234		-27.343750
235		-33.203125
236		-25.390625
237		-31.250000
238		-25.390625
239		-31.250000
240		-23.437500
241		-27.343750
242		-21.484375
243		-27.343750
244		-19.531250
245		-25.390625
246		-19.531250
247		-21.484375
248		-17.578125
249		-21.484375
250		-13.671875
251		-21.484375
252		-13.671875
253		-17.578125
254		-11.718750
255		-17.578125
256		-9.765625
257		-15.625000
258		-7.812500
259		-13.671875
260		-5.859375
261		-11.718750
262		-5.859375
263		-7.812500
264		-3.906250
265		-5.859375
266		0.000000
267		-5.859375
268		1.953125
269		-3.906250
270		3.906250
271		-1.953125
272		5.859375
273		-1.953125
274		7.812500
275		1.953125
276		7.812500
277		1.953125
278		9.765625
279		5.859375
280		9.765625
281		7.812500
282		11.718750
283		9.765625
284		15.625000
285		9.765625
286		17.578125
287		11.718750
288		19.531250
289		13.671875
290		21.484375
291		15.625000
292		23.437500
293		17.578125
294		23.437500
295		19.531250
296		25.390625
297		21.484375
298		25.390625
299		23.437500
300		29.296875
301		23.437500
302		31.250000
303		25.390625
304		33.203125
305		27.343750
306		33.203125
307		29.296875
308		37.109375
309		31.250000
310		37.109375
311		31.250000
312		39.062500
313		35.156250
314		39.062500
315		37.109375
316		41.015625
317		37.109375
318		44.921875
319		39.062500
320		44.921875
321		39.062500
322		46.875000
323		41.015625
324		48.828125
325		42.968750
326		48.828125
327		42.968750
328		50.781250
329		46.875000
330		50.781250
331		48.828125
332		52.734375
333		46.875000
334		54.687500
335		48.828125
336		56.640625
337		50.781250
338		58.593750
339		50.781250
340		58.593750
341		52.734375
342		60.546875
343		54.687500
344		60.546875
345		54.687500
346		62.500000
347		58.593750
348		60.546875
349		58.593750
350		64.453125
351		58.593750
352		64.453125
353		58.593750
354		66.406250
355		60.546875
356		66.406250
357		62.500000
358		68.359375
359		62.500000
360		68.359375
361		62.500000
362		70.312500
363		66.406250
364		68.359375
365		66.406250
366		70.312500
367		66.406250
368		72.265625
369		66.406250
370		72.265625
371		66.406250
372		74.218750
373		68.359375
374		74.218750
375		68.359375
376		74.218750
377		68.359375
378		74.218750
379		70.312500
380		74.218750
381		70.312500
382		74.218750
383		70.312500
384		76.171875
385		70.312500
386		76.171875
387		70.312500
388		76.171875
389		70.312500
390		76.171875
391		70.312500
392		78.125000
393		72.265625
394		78.125000
395		70.312500
396		78.125000
397		72.265625
398		76.171875
399		74.218750
400		76.171875
401		72.265625
402		78.125000
403		72.265625
404		78.125000
405		70.312500
406		78.125000
407		70.312500
408		78.125000
409		70.312500
410		78.125000
411		70.312500
412		78.125000
413		72.265625
414		76.171875
415		72.265625
416		74.218750
417		70.312500
418		76.171875
419		68.359375
420		76.171875
421		68.359375
422		76.171875
423		68.359375
424		74.218750
425		68.359375
426		74.218750
427		68.359375
428		74.218750
429		68.359375
430		72.265625
431		68.359375
432		70.312500
433		66.406250
434		70.312500
435		64.453125
436		72.265625
437		64.453125
438		70.312500
439		64.453125
440		70.312500
441		62.500000
442		68.359375
443		62.500000
444		68.359375
445		60.546875
446		66.406250
447		60.546875
448		66.406250
449		60.546875
450		62.500000
451		56.640625
452		64.453125
453		56.640625
454		64.453125
455		56.640625
456		62.500000
457		54.687500
458		60.546875
459		52.734375
460		60.546875
461		52.734375
462		58.593750
463		52.734375
464		56.640625
465		50.781250
466		54.687500
467		48.828125
468		54.687500
469		46.875000
470		52.734375
471		44.921875
472		52.734375
473		42.968750
474		50.781250
475		42.968750
476		48.828125
477		41.015625
478		48.828125
479		39.062500
480		46.875000
481		41.015625
482		42.968750
483		39.062500
484		41.015625
485		35.156250
486		41.015625
487		33.203125
488		41.015625
489		31.250000
490		39.062500
491		29.296875
492		37.109375
493		27.343750
494		35.156250
495		27.343750
496		33.203125
497		25.390625
498		31.250000
499		25.390625
500		29.296875
501		21.484375
502		27.343750
503		19.531250
504		27.343750
505		17.578125
506		25.390625
507		15.625000
508		23.437500
509		13.671875
510		21.484375
511		11.718750
512		19.531250
513		11.718750
514		17.578125
515		9.765625
516		13.671875
517		7.812500
518		11.718750
519		5.859375
520		11.718750
521		3.906250
522		9.765625
523		1.953125
524		7.812500
525		0.000000
526		5.859375
527		-1.953125
528		3.906250
529		-3.906250
530		1.953125
531		-3.906250
532		0.000000
533		-5.859375
534		-1.953125
535		-9.765625
536		-1.953125
537		-11.718750
538		-3.906250
539		-13.671875
540		-5.859375
541		-13.671875
542		-7.812500
543		-17.578125
544		-9.765625
545		-19.531250
546		-11.718750
547		-19.531250
548		-13.671875
549		-19.531250
550		-15.625000
551		-23.437500
552		-17.578125
553		-25.390625
554		-17.578125
555		-27.343750
556		-19.531250
557		-29.296875
558		-21.484375
559		-29.296875
560		-23.437500
561		-33.203125
562		-25.390625
563		-33.203125
564		-27.343750
565		-33.203125
566		-29.296875
567		-35.156250
568		-31.250000
569		-39.062500
570		-31.250000
571		-39.062500
572		-33.203125
573		-41.015625
574		-33.203125
575		-42.968750
576		-35.156250
577		-42.968750
578		-37.109375
579		-44.921875
580		-37.109375
581		-46.875000
582		-39.062500
583		-44.921875
584		-42.968750
585		-48.828125
586		-42.968750
587		-50.781250
588		-42.968750
589		-50.781250
590		-44.921875
591		-52.734375
592		-44.921875
593		-52.734375
594		-46.875000
595		-54.687500
596		-46.875000
597		-54.687500
598		-48.828125
599		-54.687500
600		-50.781250
601		-54.687500
602		-52.734375
603		-58.593750
604		-50.781250
605		-58.593750
606		-52.734375
607		-60.546875
608		-52.734375
609		-60.546875
610		-52.734375
611		-60.546875
612		-54.687500
613		-62.500000
614		-54.687500
615		-60.546875
616		-56.640625
617		-60.546875
618		-58.593750
619		-62.500000
620		-56.640625
621		-62.500000
622		-56.640625
623		-64.453125
624		-56.640625
625		-64.453125
626		-56.640625
627		-64.453125
628		-58.593750
629		-64.453125
630		-58.593750
631		-62.500000
632		-58.593750
633		-62.500000
634		-60.546875
635		-64.453125
636		-58.593750
637		-64.453125
638		-58.593750
639		-64.453125
640		-58.593750
641		-64.453125
642		-56.640625
643		-64.453125
644		-56.640625
645		-64.453125
646		-56.640625
647		-64.453125
648		-56.640625
649		-60.546875
650		-58.593750
651		-60.546875
652		-58.593750
653		-62.500000
654		-54.687500
655		-62.500000
656		-54.687500
657		-60.546875
658		-54.687500
659		-60.546875
660		-54.687500
661		-60.546875
662		-54.687500
663		-60.546875
664		-52.734375
665		-58.593750
666		-52.734375
667		-54.687500
668		-52.734375
669		-56.640625
670		-50.781250
671		-56.640625
672		-48.828125
673		-54.687500
674		-48.828125
675		-54.687500
676		-46.875000
677		-52.734375
678		-46.875000
679		-52.734375
680		-44.921875
681		-50.781250
682		-42.968750
683		-48.828125
684		-44.921875
685		-46.875000
686		-42.968750
687		-48.828125
688		-41.015625
689		-46.875000
690		-39.062500
691		-44.921875
692		-37.109375
693		-42.968750
694		-37.109375
695		-42.968750
696		-35.156250
697		-41.015625
698		-35.156250
699		-39.062500
700		-35.156250
701		-35.156250
702		-33.203125
703		-37.109375
704		-29.296875
705		-35.156250
706		-27.343750
707		-33.203125
708		-27.343750
709		-31.250000
710		-25.390625
711		-31.250000
712		-23.437500
713		-29.296875
714		-21.484375
715		-27.343750
716		-21.484375
717		-23.437500
718		-19.531250
719		-21.484375
720		-17.578125
721		-21.484375
722		-15.625000
723		-19.531250
724		-13.671875
725		-19.531250
726		-11.718750
727		-17.578125
728		-9.765625
729		-15.625000
730		-7.812500
731		-13.671875
732		-5.859375
733		-9.765625
734		-5.859375
735		-7.812500
736		-3.906250
737		-7.812500
738		0.000000
739		-5.859375
740		1.953125
741		-3.906250
742		3.906250
743		-3.906250
744		3.906250
745		-1.953125
746		5.859375
747		0.000000
748		7.812500
749		1.953125
750		7.812500
751		5.859375
752		9.765625
753		7.812500
754		13.671875
755		7.812500
756		15.625000
757		9.765625
758		17.578125
759		11.718750
760		19.531250
761		13.671875
762		21.484375
763		13.671875
764		23.437500
765		17.578125
766		23.437500
767		19.531250
768		23.437500
769		21.484375
770		25.390625
771		21.484375
772		29.296875
773		23.437500
774		31.250000
775		25.390625
776		33.203125
777		27.343750
778		33.203125
779		29.296875
780		35.156250
781		29.296875
782		37.109375
783		33.203125
784		37.109375
785		35.156250
786		39.062500
787		35.156250
788		41.015625
789		35.156250
790		44.921875
791		39.062500
792		44.921875
793		39.062500
794		46.875000
795		41.015625
796		48.828125
797		41.015625
798		48.828125
799		42.968750
800		50.781250
801		46.875000
802		50.781250
803		46.875000
804		52.734375
805		48.828125
806		54.687500
807		48.828125
808		56.640625
809		50.781250
810		56.640625
811		50.781250
812		58.593750
813		52.734375
814		58.593750
815		52.734375
816		60.546875
817		56.640625
818		60.546875
819		58.593750
820		62.500000
821		56.640625
822		64.453125
823		58.593750
824		64.453125
825		58.593750
826		66.406250
827		60.546875
828		66.406250
829		60.546875
830		68.359375
831		60.546875
832		68.359375
833		64.453125
834		68.359375
835		66.406250
836		68.359375
837		64.453125
838		70.312500
839		64.453125
840		72.265625
841		64.453125
842		72.265625
843		66.406250
844		72.265625
845		66.406250
846		72.265625
847		66.406250
848		74.218750
849		68.359375
850		74.218750
851		70.312500
852		72.265625
853		70.312500
854		74.218750
855		68.359375
856		76.171875
857		68.359375
858		76.171875
859		70.312500
860		76.171875
861		70.312500
862		76.171875
863		70.312500
864		76.171875
865		70.312500
866		78.125000
867		72.265625
868		76.171875
869		72.265625
870		74.218750
871		72.265625
872		78.125000
873		70.312500
874		78.125000
875		70.312500
876		78.125000
877		70.312500
878		78.125000
879		70.312500
880		78.125000
881		70.312500
882		78.125000
883		70.312500
884		76.171875
885		72.265625
886		74.218750
887		70.312500
888		74.218750
889		70.312500
890		76.171875
891		68.359375
892		76.171875
893		68.359375
894		76.171875
895		68.359375
896		74.218750
897		68.359375
898		74.218750
899		66.406250
900		74.218750
901		68.359375
902		70.312500
903		68.359375
904		70.312500
905		64.453125
906		72.265625
907		64.453125
908		70.312500
909		62.500000
910		70.312500
911		62.500000
912		70.312500
913		62.500000
914		68.359375
915		60.546875
916		68.359375
917		60.546875
918		66.406250
919		60.546875
920		64.453125
921		58.593750
922		64.453125
923		56.640625
924		64.453125
925		56.640625
926		62.500000
927		54.687500
928		62.500000
929		54.687500
930		60.546875
931		52.734375
932		58.593750
933		50.781250
934		58.593750
935		52.734375
936		54.687500
937		50.781250
938		54.687500
939		46.875000
940		52.734375
941		46.875000
942		52.734375
943		44.921875
944		52.734375
945		42.968750
946		50.781250
947		41.015625
948		48.828125
949		41.015625
950		48.828125
951		41.015625
952		46.875000
953		39.062500
954		42.968750
955		35.156250
956		42.968750
957		33.203125
958		42.968750
959		31.250000
960		41.015625
961		31.250000
962		39.062500
963		29.296875
964		37.109375
965		27.343750
966		35.156250
967		27.343750
968		33.203125
969		25.390625
970		29.296875
971		23.437500
972		27.343750
973		21.484375
974		27.343750
975		19.531250
976		25.390625
977		17.578125
978		25.390625
979		15.625000
980		23.437500
981		13.671875
982		19.531250
983		11.718750
984		19.531250
985		11.718750
986		15.625000
987		9.765625
988		13.671875
989		5.859375
990		13.671875
991		3.906250
992		11.718750
993		1.953125
994		9.765625
995		0.000000
996		7.812500
997		-1.953125
998		5.859375
999		-1.953125
1000		3.906250
1001		-3.906250
1002		1.953125
1003		-3.906250
1004		-1.953125
1005		-7.812500
1006		-1.953125
1007		-9.765625
1008		-1.953125
1009		-11.718750
1010		-3.906250
1011		-13.671875
1012		-5.859375
1013		-15.625000
1014		-7.812500
1015		-17.578125
1016		-9.765625
1017		-19.531250
1018		-11.718750
1019		-19.531250
1020		-15.625000
1021		-21.484375
1022		-17.578125
1023		-23.437500
1024		-17.578125
1025		-25.390625
1026		-19.531250
1027		-27.343750
1028		-19.531250
1029		-29.296875
1030		-23.437500
1031		-31.250000
1032		-23.437500
1033		-31.250000
1034		-25.390625
1035		-33.203125
1036		-27.343750
1037		-33.203125
1038		-31.250000
1039		-37.109375
1040		-31.250000
1041		-39.062500
1042		-31.250000
1043		-41.015625
1044		-33.203125
1045		-41.015625
1046		-35.156250
1047		-42.968750
1048		-37.109375
1049		-44.921875
1050		-37.109375
1051		-44.921875
1052		-39.062500
1053		-44.921875
1054		-42.968750
1055		-46.875000
1056		-42.968750
1057		-48.828125
1058		-42.968750
1059		-50.781250
1060		-44.921875
1061		-52.734375
1062		-44.921875
1063		-52.734375
1064		-44.921875
1065		-52.734375
1066		-46.875000
1067		-54.687500
1068		-48.828125
1069		-54.687500
1070		-50.781250
1071		-54.687500
1072		-52.734375
1073		-58.593750
1074		-50.781250
1075		-58.593750
1076		-52.734375
1077		-58.593750
1078		-52.734375
1079		-60.546875
1080		-52.734375
1081		-60.546875
1082		-54.687500
1083		-60.546875
1084		-54.687500
1085		-62.500000
1086		-54.687500
1087		-60.546875
1088		-58.593750
1089		-62.500000
1090		-56.640625
1091		-64.453125
1092		-56.640625
1093		-64.453125
1094		-56.640625
1095		-64.453125
1096		-58.593750
1097		-64.453125
1098		-58.593750
1099		-64.453125
1100		-56.640625
1101		-64.453125
1102		-58.593750
1103		-62.500000
1104		-60.546875
1105		-62.500000
1106		-60.546875
1107		-64.453125
1108		-58.593750
1109		-64.453125
1110		-58.593750
1111		-64.453125
1112		-58.593750
1113		-64.453125
1114		-58.593750
1115		-64.453125
1116		-58.593750
1117		-64.453125
1118		-58.593750
1119		-62.500000
1120		-56.640625
1121		-60.546875
1122		-58.593750
1123		-62.500000
1124		-56.640625
1125		-62.500000
1126		-56.640625
1127		-62.500000
1128		-54.687500
1129		-62.500000
1130		-54.687500
1131		-60.546875
1132		-54.687500
1133		-60.546875
1134		-52.734375
1135		-58.593750
1136		-52.734375
1137		-56.640625
1138		-52.734375
1139		-56.640625
1140		-50.781250
1141		-56.640625
1142		-50.781250
1143		-56.640625
1144		-48.828125
1145		-54.687500
1146		-48.828125
1147		-54.687500
1148		-46.875000
1149		-52.734375
1150		-46.875000
1151		-52.734375
1152		-44.921875
1153		-48.828125
1154		-44.921875
1155		-48.828125
1156		-44.921875
1157		-48.828125
1158		-41.015625
1159		-46.875000
1160		-41.015625
1161		-44.921875
1162		-39.062500
1163		-44.921875
1164		-37.109375
1165		-42.968750
1166		-37.109375
1167		-41.015625
1168		-35.156250
1169		-41.015625
1170		-35.156250
1171		-37.109375
1172		-33.203125
1173		-35.156250
1174		-31.250000
1175		-35.156250
1176		-29.296875
1177		-35.156250
1178		-27.343750
1179		-33.203125
1180		-25.390625
1181		-31.250000
1182		-25.390625
1183		-29.296875
1184		-23.437500
1185		-27.343750
1186		-21.484375
1187		-25.390625
1188		-19.531250
1189		-23.437500
1190		-19.531250
1191		-23.437500
1192		-15.625000
1193		-21.484375
1194		-13.671875
1195		-19.531250
1196		-11.718750
1197		-17.578125
1198		-11.718750
1199		-15.625000
1200		-7.812500
1201		-13.671875
1202		-7.812500
1203		-11.718750
1204		-7.812500
1205		-7.812500
1206		-5.859375
1207		-7.812500
1208		-1.953125
1209		-7.812500
1210		0.000000
1211		-3.906250
1212		1.953125
1213		-3.906250
1214		3.906250
1215		-1.953125
1216		5.859375
1217		0.000000
1218		5.859375
1219		1.953125
1220		7.812500
1221		5.859375
1222		9.765625
1223		7.812500
1224		9.765625
1225		7.812500
1226		13.671875
1227		9.765625
1228		15.625000
1229		9.765625
1230		17.578125
1231		11.718750
1232		19.531250
1233		13.671875
1234		21.484375
1235		15.625000
1236		23.437500
1237		19.531250
1238		23.437500
1239		21.484375
1240		25.390625
1241		21.484375
1242		27.343750
1243		21.484375
1244		29.296875
1245		23.437500
1246		31.250000
1247		25.390625
1248		33.203125
1249		27.343750
1250		35.156250
1251		29.296875
1252		37.109375
1253		31.250000
1254		37.109375
1255		35.156250
1256		37.109375
1257		35.156250
1258		39.062500
1259		35.156250
1260		42.968750
1261		37.109375
1262		42.968750
1263		39.062500
1264		44.921875
1265		41.015625
1266		46.875000
1267		41.015625
1268		48.828125
1269		42.968750
1270		48.828125
1271		46.875000
1272		48.828125
1273		48.828125
1274		50.781250
1275		46.875000
1276		54.687500
1277		48.828125
1278		54.687500
1279		48.828125
1280		56.640625
1281		50.781250
1282		58.593750
1283		50.781250
1284		58.593750
1285		52.734375
1286		60.546875
1287		54.687500
1288		60.546875
1289		56.640625
1290		60.546875
1291		56.640625
1292		64.453125
1293		56.640625
1294		64.453125
1295		58.593750
1296		64.453125
1297		60.546875
1298		66.406250
1299		60.546875
1300		66.406250
1301		60.546875
1302		68.359375
1303		62.500000
1304		68.359375
1305		64.453125
1306		68.359375
1307		66.406250
1308		68.359375
1309		64.453125
1310		70.312500
1311		64.453125
1312		72.265625
1313		66.406250
1314		72.265625
1315		66.406250
1316		72.265625
1317		66.406250
1318		74.218750
1319		66.406250
1320		74.218750
1321		68.359375
1322		72.265625
1323		70.312500
1324		72.265625
1325		68.359375
1326		74.218750
1327		68.359375
1328		76.171875
1329		68.359375
1330		76.171875
1331		70.312500
1332		78.125000
1333		70.312500
1334		76.171875
1335		70.312500
1336		76.171875
1337		70.312500
1338		76.171875
1339		72.265625
1340		74.218750
1341		70.312500
1342		76.171875
1343		70.312500
1344		76.171875
1345		70.312500
1346		76.171875
1347		70.312500
1348		76.171875
1349		70.312500
1350		76.171875
1351		70.312500
1352		76.171875
1353		70.312500
1354		76.171875
1355		72.265625
1356		74.218750
1357		72.265625
1358		74.218750
1359		68.359375
1360		76.171875
1361		68.359375
1362		76.171875
1363		68.359375
1364		76.171875
1365		68.359375
1366		74.218750
1367		68.359375
1368		74.218750
1369		66.406250
1370		74.218750
1371		66.406250
1372		72.265625
1373		68.359375
1374		70.312500
1375		64.453125
1376		70.312500
1377		64.453125
1378		72.265625
1379		62.500000
1380		70.312500
1381		62.500000
1382		70.312500
1383		62.500000
1384		68.359375
1385		60.546875
1386		68.359375
1387		60.546875
1388		66.406250
1389		60.546875
1390		64.453125
1391		58.593750
1392		62.500000
1393		56.640625
1394		64.453125
1395		56.640625
1396		62.500000
1397		54.687500
1398		62.500000
1399		54.687500
1400		60.546875
1401		52.734375
1402		60.546875
1403		52.734375
1404		58.593750
1405		52.734375
1406		56.640625
1407		50.781250
1408		54.687500
1409		46.875000
1410		54.687500
1411		46.875000
1412		52.734375
1413		44.921875
1414		52.734375
1415		42.968750
1416		50.781250
1417		42.968750
1418		48.828125
1419		41.015625
1420		46.875000
1421		41.015625
1422		46.875000
1423		39.062500
1424		42.968750
1425		35.156250
1426		42.968750
1427		35.156250
1428		41.015625
1429		33.203125
1430		41.015625
1431		31.250000
1432		39.062500
1433		29.296875
1434		37.109375
1435		29.296875
1436		35.156250
1437		27.343750
1438		33.203125
1439		27.343750
1440		29.296875
1441		25.390625
1442		29.296875
1443		21.484375
1444		27.343750
1445		19.531250
1446		27.343750
1447		17.578125
1448		25.390625
1449		15.625000
1450		23.437500
1451		13.671875
1452		21.484375
1453		13.671875
1454		19.531250
1455		11.718750
1456		17.578125
1457		11.718750
1458		13.671875
1459		7.812500
1460		13.671875
1461		5.859375
1462		11.718750
1463		3.906250
1464		9.765625
1465		1.953125
1466		9.765625
1467		0.000000
1468		5.859375
1469		-1.953125
1470		3.906250
1471		-3.906250
1472		1.953125
1473		-3.906250
1474		0.000000
1475		-7.812500
1476		-1.953125
1477		-9.765625
1478		-1.953125
1479		-11.718750
1480		-3.906250
1481		-13.671875
1482		-5.859375
1483		-15.625000
1484		-7.812500
1485		-17.578125
1486		-9.765625
1487		-17.578125
1488		-11.718750
1489		-19.531250
1490		-13.671875
1491		-19.531250
1492		-17.578125
1493		-23.437500
1494		-17.578125
1495		-25.390625
1496		-17.578125
1497		-27.343750
1498		-19.531250
1499		-29.296875
1500		-21.484375
1501		-31.250000
1502		-23.437500
1503		-33.203125
1504		-25.390625
1505		-33.203125
1506		-25.390625
1507		-33.203125
1508		-29.296875
1509		-37.109375
1510		-31.250000
1511		-39.062500
1512		-31.250000
1513		-39.062500
1514		-33.203125
1515		-41.015625
1516		-35.156250
1517		-42.968750
1518		-35.156250
1519		-44.921875
1520		-37.109375
1521		-46.875000
1522		-39.062500
1523		-44.921875
1524		-41.015625
1525		-46.875000
1526		-42.968750
1527		-48.828125
1528		-42.968750
1529		-50.781250
1530		-42.968750
1531		-52.734375
1532		-44.921875
1533		-52.734375
1534		-46.875000
1535		-52.734375
1536		-46.875000
1537		-54.687500
1538		-46.875000
1539		-56.640625
1540		-48.828125
1541		-54.687500
1542		-52.734375
1543		-56.640625
1544		-50.781250
1545		-58.593750
1546		-50.781250
1547		-58.593750
1548		-52.734375
1549		-60.546875
1550		-52.734375
1551		-60.546875
1552		-54.687500
1553		-60.546875
1554		-54.687500
1555		-62.500000
1556		-54.687500
1557		-60.546875
1558		-58.593750
1559		-60.546875
1560		-58.593750
1561		-64.453125
1562		-56.640625
1563		-64.453125
1564		-56.640625
1565		-64.453125
1566		-58.593750
1567		-64.453125
1568		-58.593750
1569		-64.453125
1570		-58.593750
1571		-64.453125
1572		-58.593750
1573		-62.500000
1574		-58.593750
1575		-62.500000
1576		-60.546875
1577		-64.453125
1578		-58.593750
1579		-64.453125
1580		-58.593750
1581		-66.406250
1582		-58.593750
1583		-66.406250
1584		-58.593750
1585		-64.453125
1586		-58.593750
1587		-64.453125
1588		-58.593750
1589		-64.453125
1590		-58.593750
1591		-62.500000
1592		-58.593750
1593		-62.500000
1594		-58.593750
1595		-62.500000
1596		-56.640625
1597		-62.500000
1598		-56.640625
1599		-62.500000
1600		-54.687500
1601		-62.500000
1602		-54.687500
1603		-60.546875
1604		-54.687500
1605		-60.546875
1606		-52.734375
1607		-56.640625
1608		-54.687500
1609		-56.640625
1610		-54.687500
1611		-58.593750
1612		-50.781250
1613		-56.640625
1614		-50.781250
1615		-56.640625
1616		-48.828125
1617		-54.687500
1618		-48.828125
1619		-54.687500
1620		-46.875000
1621		-52.734375
1622		-46.875000
1623		-52.734375
1624		-46.875000
1625		-48.828125
1626		-46.875000
1627		-48.828125
1628		-44.921875
1629		-48.828125
1630		-42.968750
1631		-48.828125
1632		-41.015625
1633		-46.875000
1634		-39.062500
1635		-44.921875
1636		-37.109375
1637		-42.968750
1638		-37.109375
1639		-42.968750
1640		-35.156250
1641		-39.062500
1642		-35.156250
1643		-37.109375
1644		-33.203125
1645		-37.109375
1646		-31.250000
1647		-37.109375
1648		-29.296875
1649		-35.156250
1650		-27.343750
1651		-33.203125
1652		-27.343750
1653		-31.250000
1654		-23.437500
1655		-29.296875
1656		-23.437500
1657		-27.343750
1658		-23.437500
1659		-25.390625
1660		-21.484375
1661		-23.437500
1662		-17.578125
1663		-23.437500
1664		-15.625000
1665		-21.484375
1666		-13.671875
1667		-21.484375
1668		-11.718750
1669		-17.578125
1670		-9.765625
1671		-17.578125
1672		-9.765625
1673		-15.625000
1674		-7.812500
1675		-11.718750
1676		-7.812500
1677		-9.765625
1678		-3.906250
1679		-9.765625
1680		-1.953125
1681		-7.812500
1682		0.000000
1683		-5.859375
1684		1.953125
1685		-3.906250
1686		3.906250
1687		-1.953125
1688		5.859375
1689		0.000000
1690		7.812500
1691		3.906250
1692		7.812500
1693		5.859375
1694		7.812500
1695		5.859375
1696		11.718750
1697		7.812500
1698		13.671875
1699		9.765625
1700		15.625000
1701		11.718750
1702		17.578125
1703		13.671875
1704		19.531250
1705		13.671875
1706		21.484375
1707		17.578125
1708		21.484375
1709		19.531250
1710		23.437500
1711		21.484375
1712		25.390625
1713		21.484375
1714		29.296875
1715		23.437500
1716		29.296875
1717		25.390625
1718		31.250000
1719		25.390625
1720		33.203125
1721		27.343750
1722		35.156250
1723		29.296875
1724		35.156250
1725		33.203125
1726		37.109375
1727		35.156250
1728		37.109375
1729		35.156250
1730		41.015625
1731		35.156250
1732		42.968750
1733		37.109375
1734		44.921875
1735		39.062500
1736		44.921875
1737		41.015625
1738		46.875000
1739		41.015625
1740		48.828125
1741		42.968750
1742		48.828125
1743		46.875000
1744		48.828125
1745		46.875000
1746		52.734375
1747		46.875000
1748		54.687500
1749		48.828125
1750		54.687500
1751		50.781250
1752		56.640625
1753		50.781250
1754		58.593750
1755		52.734375
1756		58.593750
1757		52.734375
1758		60.546875
1759		56.640625
1760		58.593750
1761		56.640625
1762		60.546875
1763		56.640625
1764		62.500000
1765		56.640625
1766		64.453125
1767		58.593750
1768		64.453125
1769		58.593750
1770		66.406250
1771		60.546875
1772		66.406250
1773		62.500000
1774		68.359375
1775		64.453125
1776		66.406250
1777		64.453125
1778		68.359375
1779		64.453125
1780		70.312500
1781		64.453125
1782		72.265625
1783		64.453125
1784		72.265625
1785		66.406250
1786		72.265625
1787		66.406250
1788		72.265625
1789		66.406250
1790		74.218750
1791		68.359375
1792		74.218750
1793		70.312500
1794		72.265625
1795		70.312500
1796		74.218750
1797		68.359375
1798		76.171875
1799		68.359375
1800		76.171875
1801		70.312500
1802		76.171875
1803		70.312500
1804		76.171875
1805		70.312500
1806		76.171875
1807		70.312500
1808		76.171875
1809		72.265625
1810		74.218750
1811		72.265625
1812		74.218750
1813		70.312500
1814		78.125000
1815		70.312500
1816		76.171875
1817		70.312500
1818		78.125000
1819		70.312500
1820		76.171875
1821		70.312500
1822		76.171875
1823		70.312500
1824		76.171875
1825		70.312500
1826		76.171875
1827		72.265625
1828		74.218750
1829		68.359375
1830		76.171875
1831		70.312500
1832		76.171875
1833		68.359375
1834		76.171875
1835		68.359375
1836		74.218750
1837		68.359375
1838		74.218750
1839		66.406250
1840		74.218750
1841		66.406250
1842		74.218750
1843		68.359375
1844		70.312500
1845		68.359375
1846		70.312500
1847		64.453125
1848		70.312500
1849		64.453125
1850		70.312500
1851		66.406250
1852		68.359375
1853		64.453125
1854		68.359375
1855		62.500000
1856		68.359375
1857		60.546875
1858		68.359375
1859		62.500000
1860		64.453125
1861		60.546875
1862		64.453125
1863		58.593750
1864		64.453125
1865		56.640625
1866		64.453125
1867		58.593750
1868		62.500000
1869		56.640625
1870		60.546875
1871		54.687500
1872		60.546875
1873		52.734375
1874		58.593750
1875		52.734375
1876		58.593750
1877		52.734375
1878		54.687500
1879		50.781250
1880		54.687500
1881		48.828125
1882		54.687500
1883		48.828125
1884		50.781250
1885		46.875000
1886		50.781250
1887		44.921875
1888		48.828125
1889		41.015625
1890		48.828125
1891		41.015625
1892		46.875000
1893		41.015625
1894		44.921875
1895		39.062500
1896		42.968750
1897		35.156250
1898		42.968750
1899		37.109375
1900		41.015625
1901		35.156250
1902		39.062500
1903		33.203125
1904		37.109375
1905		31.250000
1906		35.156250
1907		29.296875
1908		35.156250
1909		27.343750
1910		33.203125
1911		27.343750
1912		29.296875
1913		23.437500
1914		29.296875
1915		23.437500
1916		27.343750
1917		21.484375
1918		25.390625
1919		19.531250
1920		23.437500
1921		17.578125
1922		21.484375
1923		15.625000
1924		19.531250
1925		13.671875
1926		17.578125
1927		11.718750
1928		15.625000
1929		9.765625
1930		13.671875
1931		7.812500
1932		13.671875
1933		5.859375
1934		9.765625
1935		5.859375
1936		7.812500
1937		3.906250
1938		5.859375
1939		1.953125
1940		5.859375
1941		-1.953125
1942		3.906250
1943		-1.953125
1944		1.953125
1945		-3.906250
1946		0.000000
1947		-5.859375
1948		-1.953125
1949		-7.812500
1950		-3.906250
1951		-9.765625
1952		-5.859375
1953		-11.718750
1954		-7.812500
1955		-13.671875
1956		-9.765625
1957		-15.625000
1958		-11.718750
1959		-17.578125
1960		-13.671875
1961		-17.578125
1962		-15.625000
1963		-21.484375
1964		-17.578125
1965		-21.484375
1966		-17.578125
1967		-23.437500
1968		-19.531250
1969		-25.390625
1970		-21.484375
1971		-27.343750
1972		-23.437500
1973		-29.296875
1974		-23.437500
1975		-31.250000
1976		-27.343750
1977		-31.250000
1978		-29.296875
1979		-33.203125
1980		-29.296875
1981		-35.156250
1982		-31.250000
1983		-37.109375
1984		-33.203125
1985		-39.062500
1986		-33.203125
1987		-39.062500
1988		-37.109375
1989		-41.015625
1990		-37.109375
1991		-42.968750
1992		-39.062500
1993		-42.968750
1994		-39.062500
1995		-44.921875
1996		-41.015625
1997		-46.875000
1998		-42.968750
1999		-46.875000
2000		-42.968750
2001		-48.828125
2002		-44.921875
2003		-48.828125
2004		-46.875000
2005		-50.781250
2006		-46.875000
2007		-52.734375
2008		-48.828125
2009		-54.687500
2010		-48.828125
2011		-52.734375
2012		-50.781250
2013		-54.687500
2014		-52.734375
2015		-56.640625
2016		-52.734375
2017		-56.640625
2018		-52.734375
2019		-56.640625
2020		-54.687500
2021		-58.593750
2022		-54.687500
2023		-58.593750
2024		-56.640625
2025		-60.546875
2026		-56.640625
2027		-60.546875
2028		-56.640625
2029		-60.546875
2030		-58.593750
2031		-62.500000
2032		-58.593750
2033		-60.546875
2034		-58.593750
2035		-62.500000
2036		-58.593750
2037		-62.500000
2038		-58.593750
2039		-62.500000
2040		-60.546875
2041		-62.500000
2042		-60.546875
2043		-62.500000
2044		-60.546875
2045		-62.500000
2046		-60.546875
2047		-64.453125
2048		-60.546875
2049		-64.453125
2050		-60.546875
2051		-62.500000
2052		-60.546875
2053		-64.453125
2054		-60.546875
2055		-62.500000
2056		-60.546875
2057		-62.500000
2058		-60.546875
2059		-62.500000
2060		-58.593750
2061		-62.500000
2062		-60.546875
2063		-62.500000
2064		-58.593750
2065		-62.500000
2066		-58.593750
2067		-60.546875
2068		-58.593750
2069		-60.546875
2070		-58.593750
2071		-60.546875
2072		-56.640625
2073		-60.546875
2074		-56.640625
2075		-58.593750
2076		-54.687500
2077		-58.593750
2078		-54.687500
2079		-56.640625
2080		-54.687500
2081		-56.640625
2082		-52.734375
2083		-56.640625
2084		-52.734375
2085		-54.687500
2086		-52.734375
2087		-54.687500
2088		-50.781250
2089		-52.734375
2090		-50.781250
2091		-52.734375
2092		-48.828125
2093		-52.734375
2094		-46.875000
2095		-50.781250
2096		-46.875000
2097		-48.828125
2098		-46.875000
2099		-48.828125
2100		-44.921875
2101		-46.875000
2102		-42.968750
2103		-44.921875
2104		-41.015625
2105		-42.968750
2106		-41.015625
2107		-42.968750
2108		-39.062500
2109		-41.015625
2110		-39.062500
2111		-41.015625
2112		-37.109375
2113		-39.062500
2114		-35.156250
2115		-37.109375
2116		-33.203125
2117		-35.156250
2118		-31.250000
2119		-33.203125
2120		-31.250000
2121		-33.203125
2122		-29.296875
2123		-31.250000
2124		-27.343750
2125		-29.296875
2126		-25.390625
2127		-27.343750
2128		-25.390625
2129		-25.390625
2130		-23.437500
2131		-23.437500
2132		-19.531250
2133		-23.437500
2134		-19.531250
2135		-21.484375
2136		-17.578125
2137		-19.531250
2138		-15.625000
2139		-17.578125
2140		-13.671875
2141		-17.578125
2142		-11.718750
2143		-13.671875
2144		-9.765625
2145		-11.718750
2146		-7.812500
2147		-9.765625
2148		-7.812500
2149		-9.765625
2150		-3.906250
2151		-7.812500
2152		-3.906250
2153		-5.859375
2154		-1.953125
2155		-3.906250
2156		0.000000
2157		-1.953125
2158		1.953125
2159		0.000000
2160		3.906250
2161		0.000000
2162		5.859375
2163		3.906250
2164		7.812500
2165		5.859375
2166		9.765625
2167		7.812500
2168		11.718750
2169		7.812500
2170		13.671875
2171		11.718750
2172		15.625000
2173		11.718750
2174		15.625000
2175		13.671875
2176		17.578125
2177		15.625000
2178		19.531250
2179		17.578125
2180		21.484375
2181		19.531250
2182		23.437500
2183		19.531250
2184		25.390625
2185		23.437500
2186		27.343750
2187		25.390625
2188		29.296875
2189		27.343750
2190		31.250000
2191		27.343750
2192		31.250000
2193		29.296875
2194		33.203125
2195		31.250000
2196		35.156250
2197		33.203125
2198		37.109375
2199		35.156250
2200		39.062500
2201		35.156250
2202		39.062500
2203		37.109375
2204		41.015625
2205		39.062500
2206		42.968750
2207		41.015625
2208		44.921875
2209		42.968750
2210		46.875000
2211		42.968750
2212		46.875000
2213		44.921875
2214		48.828125
2215		46.875000
2216		50.781250
2217		46.875000
2218		50.781250
2219		48.828125
2220		52.734375
2221		48.828125
2222		52.734375
2223		52.734375
2224		54.687500
2225		52.734375
2226		56.640625
2227		54.687500
2228		58.593750
2229		54.687500
2230		58.593750
2231		56.640625
2232		58.593750
2233		56.640625
2234		60.546875
2235		58.593750
2236		60.546875
2237		58.593750
2238		62.500000
2239		60.546875
2240		64.453125
2241		60.546875
2242		64.453125
2243		62.500000
2244		66.406250
2245		62.500000
2246		66.406250
2247		64.453125
2248		66.406250
2249		64.453125
2250		68.359375
2251		66.406250
2252		68.359375
2253		66.406250
2254		70.312500
2255		66.406250
2256		70.312500
2257		68.359375
2258		70.312500
2259		68.359375
2260		72.265625
2261		68.359375
2262		72.265625
2263		70.312500
2264		72.265625
2265		70.312500
2266		72.265625
2267		70.312500
2268		74.218750
2269		70.312500
2270		74.218750
2271		70.312500
2272		74.218750
2273		70.312500
2274		74.218750
2275		70.312500
2276		74.218750
2277		72.265625
2278		74.218750
2279		70.312500
2280		74.218750
2281		72.265625
2282		74.218750
2283		72.265625
2284		76.171875
2285		72.265625
2286		74.218750
2287		72.265625
2288		76.171875
2289		72.265625
2290		76.171875
2291		72.265625
2292		74.218750
2293		72.265625
2294		74.218750
2295		70.312500
2296		76.171875
2297		72.265625
2298		74.218750
2299		72.265625
2300		74.218750
2301		70.312500
2302		74.218750
2303		70.312500
2304		74.218750
2305		70.312500
2306		74.218750
2307		70.312500
2308		72.265625
2309		68.359375
2310		72.265625
2311		68.359375
2312		72.265625
2313		68.359375
2314		70.312500
2315		68.359375
2316		70.312500
2317		66.406250
2318		70.312500
2319		66.406250
2320		70.312500
2321		64.453125
2322		68.359375
2323		64.453125
2324		68.359375
2325		64.453125
2326		68.359375
2327		62.500000
2328		66.406250
2329		62.500000
2330		66.406250
2331		62.500000
2332		64.453125
2333		58.593750
2334		64.453125
2335		60.546875
2336		62.500000
2337		58.593750
2338		62.500000
2339		56.640625
2340		60.546875
2341		56.640625
2342		58.593750
2343		54.687500
2344		58.593750
2345		52.734375
2346		56.640625
2347		52.734375
2348		56.640625
2349		50.781250
2350		54.687500
2351		48.828125
2352		54.687500
2353		48.828125
2354		52.734375
2355		46.875000
2356		50.781250
2357		46.875000
2358		48.828125
2359		44.921875
2360		48.828125
2361		42.968750
2362		46.875000
2363		41.015625
2364		46.875000
2365		41.015625
2366		42.968750
2367		39.062500
2368		42.968750
2369		37.109375
2370		41.015625
2371		35.156250
2372		39.062500
2373		33.203125
2374		37.109375
2375		33.203125
2376		35.156250
2377		31.250000
2378		35.156250
2379		29.296875
2380		33.203125
2381		27.343750
2382		31.250000
2383		25.390625
2384		29.296875
2385		23.437500
2386		27.343750
2387		21.484375
2388		25.390625
2389		21.484375
2390		23.437500
2391		19.531250
2392		23.437500
2393		15.625000
2394		21.484375
2395		15.625000
2396		19.531250
2397		13.671875
2398		17.578125
2399		11.718750
2400		15.625000
2401		9.765625
2402		13.671875
2403		7.812500
2404		11.718750
2405		5.859375
2406		9.765625
2407		3.906250
2408		7.812500
2409		1.953125
2410		5.859375
2411		0.000000
2412		3.906250
2413		-1.953125
2414		1.953125
2415		-1.953125
2416		0.000000
2417		-5.859375
2418		-1.953125
2419		-5.859375
2420		-1.953125
2421		-7.812500
2422		-3.906250
2423		-9.765625
2424		-5.859375
2425		-11.718750
2426		-7.812500
2427		-13.671875
2428		-9.765625
2429		-15.625000
2430		-11.718750
2431		-17.578125
2432		-13.671875
2433		-19.531250
2434		-15.625000
2435		-21.484375
2436		-17.578125
2437		-23.437500
2438		-19.531250
2439		-25.390625
2440		-19.531250
2441		-25.390625
2442		-23.437500
2443		-27.343750
2444		-23.437500
2445		-29.296875
2446		-25.390625
2447		-31.250000
2448		-27.343750
2449		-33.203125
2450		-29.296875
2451		-35.156250
2452		-31.250000
2453		-35.156250
2454		-33.203125
2455		-37.109375
2456		-33.203125
2457		-39.062500
2458		-35.156250
2459		-39.062500
2460		-37.109375
2461		-41.015625
2462		-39.062500
2463		-42.968750
2464		-39.062500
2465		-44.921875
2466		-41.015625
2467		-44.921875
2468		-42.968750
2469		-46.875000
2470		-42.968750
2471		-48.828125
2472		-44.921875
2473		-48.828125
2474		-44.921875
2475		-50.781250
2476		-46.875000
2477		-50.781250
2478		-46.875000
2479		-52.734375
2480		-48.828125
2481		-52.734375
2482		-50.781250
2483		-54.687500
2484		-50.781250
2485		-56.640625
2486		-50.781250
2487		-56.640625
2488		-52.734375
2489		-56.640625
2490		-52.734375
2491		-58.593750
2492		-54.687500
2493		-58.593750
2494		-54.687500
2495		-58.593750
2496		-56.640625
2497		-60.546875
2498		-56.640625
2499		-60.546875
2500		-56.640625
2501		-60.546875
2502		-58.593750
2503		-60.546875
2504		-58.593750
2505		-62.500000
2506		-58.593750
2507		-62.500000
2508		-58.593750
2509		-62.500000
2510		-58.593750
2511		-62.500000
2512		-58.593750
2513		-64.453125
2514		-58.593750
2515		-62.500000
2516		-60.546875
2517		-62.500000
2518		-60.546875
2519		-62.500000
2520		-60.546875
2521		-62.500000
2522		-60.546875
2523		-64.453125
2524		-60.546875
2525		-62.500000
2526		-60.546875
2527		-62.500000
2528		-60.546875
2529		-62.500000
2530		-60.546875
2531		-62.500000
2532		-60.546875
2533		-62.500000
2534		-60.546875
2535		-62.500000
2536		-58.593750
2537		-60.546875
2538		-58.593750
2539		-60.546875
2540		-58.593750
2541		-60.546875
2542		-56.640625
2543		-58.593750
2544		-56.640625
2545		-58.593750
2546		-56.640625
2547		-58.593750
2548		-54.687500
2549		-58.593750
2550		-54.687500
2551		-56.640625
2552		-54.687500
2553		-56.640625
2554		-52.734375
2555		-54.687500
2556		-52.734375
2557		-54.687500
2558		-50.781250
2559		-54.687500
2560		-50.781250
2561		-52.734375
2562		-48.828125
2563		-50.781250
2564		-48.828125
2565		-50.781250
2566		-46.875000
2567		-48.828125
2568		-46.875000
2569		-48.828125
2570		-44.921875
2571		-46.875000
2572		-44.921875
2573		-46.875000
2574		-42.968750
2575		-44.921875
2576		-41.015625
2577		-42.968750
2578		-39.062500
2579		-42.968750
2580		-39.062500
2581		-41.015625
2582		-37.109375
2583		-39.062500
2584		-37.109375
2585		-37.109375
2586		-33.203125
2587		-37.109375
2588		-33.203125
2589		-35.156250
2590		-31.250000
2591		-33.203125
2592		-29.296875
2593		-31.250000
2594		-29.296875
2595		-31.250000
2596		-27.343750
2597		-29.296875
2598		-25.390625
2599		-27.343750
2600		-23.437500
2601		-25.390625
2602		-21.484375
2603		-25.390625
2604		-19.531250
2605		-21.484375
2606		-17.578125
2607		-21.484375
2608		-15.625000
2609		-17.578125
2610		-15.625000
2611		-17.578125
2612		-11.718750
2613		-15.625000
2614		-9.765625
2615		-13.671875
2616		-9.765625
2617		-11.718750
2618		-7.812500
2619		-9.765625
2620		-5.859375
2621		-7.812500
2622		-3.906250
2623		-5.859375
2624		-1.953125
2625		-3.906250
2626		-1.953125
2627		-3.906250
2628		1.953125
2629		-1.953125
2630		3.906250
2631		0.000000
2632		5.859375
2633		1.953125
2634		5.859375
2635		3.906250
2636		7.812500
2637		5.859375
2638		9.765625
2639		7.812500
2640		11.718750
2641		9.765625
2642		13.671875
2643		11.718750
2644		15.625000
2645		13.671875
2646		17.578125
2647		13.671875
2648		19.531250
2649		15.625000
2650		19.531250
2651		19.531250
2652		21.484375
2653		19.531250
2654		23.437500
2655		21.484375
2656		25.390625
2657		23.437500
2658		27.343750
2659		25.390625
2660		29.296875
2661		27.343750
2662		31.250000
2663		29.296875
2664		33.203125
2665		31.250000
2666		33.203125
2667		31.250000
2668		35.156250
2669		33.203125
2670		37.109375
2671		35.156250
2672		39.062500
2673		37.109375
2674		41.015625
2675		39.062500
2676		41.015625
2677		39.062500
2678		42.968750
2679		41.015625
2680		44.921875
2681		42.968750
2682		46.875000
2683		44.921875
2684		46.875000
2685		46.875000
2686		48.828125
2687		46.875000
2688		50.781250
2689		48.828125
2690		52.734375
2691		48.828125
2692		54.687500
2693		50.781250
2694		54.687500
2695		52.734375
2696		56.640625
2697		52.734375
2698		56.640625
2699		54.687500
2700		58.593750
2701		56.640625
2702		58.593750
2703		56.640625
2704		60.546875
2705		58.593750
2706		60.546875
2707		58.593750
2708		62.500000
2709		60.546875
2710		64.453125
2711		60.546875
2712		64.453125
2713		62.500000
2714		64.453125
2715		62.500000
2716		66.406250
2717		64.453125
2718		66.406250
2719		64.453125
2720		68.359375
2721		64.453125
2722		68.359375
2723		66.406250
2724		70.312500
2725		66.406250
2726		70.312500
2727		68.359375
2728		70.312500
2729		68.359375
2730		72.265625
2731		68.359375
2732		72.265625
2733		68.359375
2734		72.265625
2735		70.312500
2736		72.265625
2737		68.359375
2738		74.218750
2739		70.312500
2740		74.218750
2741		70.312500
2742		74.218750
2743		72.265625
2744		74.218750
2745		72.265625
2746		74.218750
2747		72.265625
2748		74.218750
2749		72.265625
2750		76.171875
2751		72.265625
2752		74.218750
2753		72.265625
2754		76.171875
2755		72.265625
2756		76.171875
2757		72.265625
2758		76.171875
2759		72.265625
2760		74.218750
2761		72.265625
2762		76.171875
2763		72.265625
2764		76.171875
2765		72.265625
2766		76.171875
2767		72.265625
2768		74.218750
2769		72.265625
2770		74.218750
2771		70.312500
2772		74.218750
2773		72.265625
2774		74.218750
2775		70.312500
2776		74.218750
2777		70.312500
2778		74.218750
2779		70.312500
2780		72.265625
2781		70.312500
2782		72.265625
2783		68.359375
2784		72.265625
2785		68.359375
2786		70.312500
2787		68.359375
2788		70.312500
2789		66.406250
2790		72.265625
2791		66.406250
2792		70.312500
2793		66.406250
2794		68.359375
2795		64.453125
2796		68.359375
2797		64.453125
2798		68.359375
2799		62.500000
2800		66.406250
2801		62.500000
2802		66.406250
2803		62.500000
2804		64.453125
2805		60.546875
2806		64.453125
2807		58.593750
2808		62.500000
2809		58.593750
2810		62.500000
2811		56.640625
2812		60.546875
2813		56.640625
2814		60.546875
2815		54.687500
2816		58.593750
2817		54.687500
2818		58.593750
2819		52.734375
2820		56.640625
2821		50.781250
2822		54.687500
2823		50.781250
2824		54.687500
2825		48.828125
2826		52.734375
2827		46.875000
2828		50.781250
2829		46.875000
2830		48.828125
2831		44.921875
2832		48.828125
2833		42.968750
2834		46.875000
2835		41.015625
2836		44.921875
2837		39.062500
2838		42.968750
2839		37.109375
2840		42.968750
2841		37.109375
2842		41.015625
2843		35.156250
2844		39.062500
2845		33.203125
2846		37.109375
2847		31.250000
2848		35.156250
2849		29.296875
2850		35.156250
2851		29.296875
2852		33.203125
2853		27.343750
2854		31.250000
2855		25.390625
2856		29.296875
2857		23.437500
2858		27.343750
2859		21.484375
2860		25.390625
2861		19.531250
2862		23.437500
2863		19.531250
2864		23.437500
2865		17.578125
2866		21.484375
2867		15.625000
2868		19.531250
2869		13.671875
2870		17.578125
2871		9.765625
2872		15.625000
2873		9.765625
2874		13.671875
2875		5.859375
2876		11.718750
2877		5.859375
2878		9.765625
2879		1.953125
2880		7.812500
2881		1.953125
2882		5.859375
2883		0.000000
2884		3.906250
2885		-1.953125
2886		1.953125
2887		-3.906250
2888		0.000000
2889		-5.859375
2890		0.000000
2891		-7.812500
2892		-1.953125
2893		-9.765625
2894		-5.859375
2895		-11.718750
2896		-7.812500
2897		-11.718750
2898		-7.812500
2899		-15.625000
2900		-11.718750
2901		-15.625000
2902		-11.718750
2903		-17.578125
2904		-13.671875
2905		-19.531250
2906		-15.625000
2907		-21.484375
2908		-17.578125
2909		-23.437500
2910		-19.531250
2911		-25.390625
2912		-21.484375
2913		-25.390625
2914		-23.437500
2915		-27.343750
2916		-23.437500
2917		-29.296875
2918		-25.390625
2919		-31.250000
2920		-27.343750
2921		-33.203125
2922		-29.296875
2923		-35.156250
2924		-31.250000
2925		-35.156250
2926		-31.250000
2927		-37.109375
2928		-33.203125
2929		-39.062500
2930		-35.156250
2931		-41.015625
2932		-37.109375
2933		-41.015625
2934		-39.062500
2935		-42.968750
2936		-39.062500
2937		-44.921875
2938		-41.015625
2939		-44.921875
2940		-42.968750
2941		-46.875000
2942		-42.968750
2943		-48.828125
2944		-44.921875
2945		-48.828125
2946		-44.921875
2947		-50.781250
2948		-46.875000
2949		-50.781250
2950		-48.828125
2951		-50.781250
2952		-48.828125
2953		-52.734375
2954		-50.781250
2955		-54.687500
2956		-50.781250
2957		-54.687500
2958		-50.781250
2959		-54.687500
2960		-52.734375
2961		-56.640625
2962		-52.734375
2963		-58.593750
2964		-54.687500
2965		-58.593750
2966		-54.687500
2967		-58.593750
2968		-54.687500
2969		-58.593750
2970		-56.640625
2971		-60.546875
2972		-56.640625
2973		-60.546875
2974		-56.640625
2975		-60.546875
2976		-58.593750
2977		-60.546875
2978		-58.593750
2979		-62.500000
2980		-58.593750
2981		-62.500000
2982		-58.593750
2983		-62.500000
2984		-58.593750
2985		-62.500000
2986		-58.593750
2987		-62.500000
2988		-58.593750
2989		-62.500000
2990		-60.546875
2991		-62.500000
2992		-60.546875
2993		-62.500000
2994		-60.546875
2995		-62.500000
2996		-58.593750
2997		-62.500000
2998		-60.546875
2999		-62.500000
3000		-58.593750
3001		-62.500000
3002		-58.593750
3003		-62.500000
3004		-60.546875
3005		-62.500000
3006		-58.593750
3007		-62.500000
3008		-58.593750
3009		-60.546875
3010		-58.593750
3011		-60.546875
3012		-56.640625
3013		-60.546875
3014		-56.640625
3015		-58.593750
3016		-56.640625
3017		-58.593750
3018		-54.687500
3019		-58.593750
3020		-54.687500
3021		-56.640625
3022		-54.687500
3023		-56.640625
3024		-52.734375
3025		-56.640625
3026		-52.734375
3027		-54.687500
3028		-52.734375
3029		-54.687500
3030		-50.781250
3031		-54.687500
3032		-50.781250
3033		-52.734375
3034		-48.828125
3035		-50.781250
3036		-46.875000
3037		-50.781250
3038		-46.875000
3039		-48.828125
3040		-44.921875
3041		-48.828125
3042		-44.921875
3043		-46.875000
3044		-42.968750
3045		-44.921875
3046		-42.968750
3047		-44.921875
3048		-41.015625
3049		-42.968750
3050		-39.062500
3051		-42.968750
3052		-37.109375
3053		-41.015625
3054		-37.109375
3055		-39.062500
3056		-35.156250
3057		-37.109375
3058		-33.203125
3059		-37.109375
3060		-33.203125
3061		-35.156250
3062		-31.250000
3063		-33.203125
3064		-29.296875
3065		-31.250000
3066		-27.343750
3067		-29.296875
3068		-25.390625
3069		-29.296875
3070		-25.390625
3071		-27.343750
3072		-23.437500
3073		-25.390625
3074		-21.484375
3075		-23.437500
3076		-19.531250
3077		-21.484375
3078		-17.578125
3079		-21.484375
3080		-15.625000
3081		-17.578125
3082		-15.625000
3083		-17.578125
3084		-11.718750
3085		-13.671875
3086		-11.718750
3087		-13.671875
3088		-9.765625
3089		-11.718750
3090		-7.812500
3091		-9.765625
3092		-5.859375
3093		-7.812500
3094		-3.906250
3095		-5.859375
3096		-1.953125
3097		-3.906250
3098		0.000000
3099		-1.953125
3100		1.953125
3101		0.000000
3102		3.906250
3103		1.953125
3104		3.906250
3105		3.906250
3106		5.859375
3107		3.906250
3108		9.765625
3109		5.859375
3110		9.765625
3111		7.812500
3112		11.718750
3113		9.765625
3114		13.671875
3115		11.718750
3116		15.625000
3117		13.671875
3118		17.578125
3119		15.625000
3120		19.531250
3121		17.578125
3122		21.484375
3123		19.531250
3124		23.437500
3125		21.484375
3126		23.437500
3127		23.437500
3128		25.390625
3129		23.437500
3130		27.343750
3131		25.390625
3132		29.296875
3133		27.343750
3134		31.250000
3135		29.296875
3136		33.203125
3137		31.250000
3138		33.203125
3139		33.203125
3140		35.156250
3141		33.203125
3142		37.109375
3143		35.156250
3144		39.062500
3145		37.109375
3146		41.015625
3147		39.062500
3148		42.968750
3149		39.062500
3150		42.968750
3151		41.015625
3152		44.921875
3153		42.968750
3154		46.875000
3155		44.921875
3156		48.828125
3157		44.921875
3158		50.781250
3159		46.875000
3160		50.781250
3161		48.828125
3162		52.734375
3163		50.781250
3164		52.734375
3165		50.781250
3166		54.687500
3167		52.734375
3168		56.640625
3169		52.734375
3170		58.593750
3171		54.687500
3172		58.593750
3173		56.640625
3174		60.546875
3175		56.640625
3176		60.546875
3177		58.593750
3178		62.500000
3179		58.593750
3180		62.500000
3181		60.546875
3182		64.453125
3183		60.546875
3184		64.453125
3185		62.500000
3186		66.406250
3187		62.500000
3188		66.406250
3189		64.453125
3190		66.406250
3191		64.453125
3192		68.359375
3193		64.453125
3194		68.359375
3195		66.406250
3196		70.312500
3197		66.406250
3198		70.312500
3199		68.359375
3200		70.312500
3201		68.359375
3202		72.265625
3203		68.359375
3204		72.265625
3205		70.312500
3206		72.265625
3207		70.312500
3208		74.218750
3209		70.312500
3210		74.218750
3211		70.312500
3212		74.218750
3213		72.265625
3214		76.171875
3215		72.265625
3216		74.218750
3217		70.312500
3218		76.171875
3219		72.265625
3220		76.171875
3221		72.265625
3222		74.218750
3223		72.265625
3224		74.218750
3225		72.265625
3226		76.171875
3227		72.265625
3228		76.171875
3229		72.265625
3230		76.171875
3231		72.265625
3232		76.171875
3233		72.265625
3234		76.171875
3235		72.265625
3236		76.171875
3237		72.265625
3238		76.171875
3239		72.265625
3240		76.171875
3241		70.312500
3242		76.171875
3243		72.265625
3244		74.218750
3245		70.312500
3246		74.218750
3247		72.265625
3248		74.218750
3249		70.312500
3250		74.218750
3251		70.312500
3252		74.218750
3253		70.312500
3254		72.265625
3255		70.312500
3256		72.265625
3257		68.359375
3258		72.265625
3259		68.359375
3260		72.265625
3261		66.406250
3262		70.312500
3263		66.406250
3264		70.312500
3265		66.406250
3266		68.359375
3267		64.453125
3268		68.359375
3269		64.453125
3270		68.359375
3271		64.453125
3272		66.406250
3273		62.500000
3274		66.406250
3275		60.546875
3276		64.453125
3277		60.546875
3278		64.453125
3279		60.546875
3280		62.500000
3281		58.593750
3282		62.500000
3283		56.640625
3284		60.546875
3285		56.640625
3286		60.546875
3287		54.687500
3288		58.593750
3289		54.687500
3290		56.640625
3291		50.781250
3292		56.640625
3293		50.781250
3294		54.687500
3295		50.781250
3296		54.687500
3297		48.828125
3298		52.734375
3299		46.875000
3300		50.781250
3301		46.875000
3302		48.828125
3303		44.921875
3304		48.828125
3305		42.968750
3306		46.875000
3307		41.015625
3308		44.921875
3309		41.015625
3310		44.921875
3311		39.062500
3312		42.968750
3313		37.109375
3314		41.015625
3315		35.156250
3316		39.062500
3317		33.203125
3318		37.109375
3319		33.203125
3320		35.156250
3321		31.250000
3322		35.156250
3323		29.296875
3324		33.203125
3325		27.343750
3326		31.250000
3327		25.390625
3328		29.296875
3329		23.437500
3330		27.343750
3331		21.484375
3332		25.390625
3333		19.531250
3334		23.437500
3335		19.531250
3336		21.484375
3337		15.625000
3338		19.531250
3339		15.625000
3340		19.531250
3341		13.671875
3342		15.625000
3343		11.718750
3344		15.625000
3345		9.765625
3346		13.671875
3347		7.812500
3348		11.718750
3349		5.859375
3350		9.765625
3351		3.906250
3352		7.812500
3353		1.953125
3354		5.859375
3355		0.000000
3356		3.906250
3357		-1.953125
3358		1.953125
3359		-3.906250
3360		0.000000
3361		-5.859375
3362		-1.953125
3363		-7.812500
3364		-3.906250
3365		-9.765625
3366		-3.906250
3367		-11.718750
3368		-5.859375
3369		-13.671875
3370		-7.812500
3371		-13.671875
3372		-9.765625
3373		-15.625000
3374		-11.718750
3375		-17.578125
3376		-13.671875
3377		-19.531250
3378		-15.625000
3379		-21.484375
3380		-17.578125
3381		-23.437500
3382		-19.531250
3383		-23.437500
3384		-21.484375
3385		-25.390625
3386		-23.437500
3387		-29.296875
3388		-25.390625
3389		-29.296875
3390		-25.390625
3391		-31.250000
3392		-27.343750
3393		-33.203125
3394		-29.296875
3395		-33.203125
3396		-31.250000
3397		-35.156250
3398		-31.250000
3399		-37.109375
3400		-33.203125
3401		-39.062500
3402		-35.156250
3403		-39.062500
3404		-37.109375
3405		-42.968750
3406		-37.109375
3407		-42.968750
3408		-39.062500
3409		-44.921875
3410		-41.015625
3411		-44.921875
3412		-42.968750
3413		-46.875000
3414		-42.968750
3415		-46.875000
3416		-44.921875
3417		-48.828125
3418		-44.921875
3419		-50.781250
3420		-46.875000
3421		-52.734375
3422		-46.875000
3423		-52.734375
3424		-48.828125
3425		-52.734375
3426		-50.781250
3427		-54.687500
3428		-50.781250
3429		-54.687500
3430		-50.781250
3431		-54.687500
3432		-52.734375
3433		-56.640625
3434		-52.734375
3435		-56.640625
3436		-54.687500
3437		-58.593750
3438		-54.687500
3439		-58.593750
3440		-54.687500
3441		-58.593750
3442		-56.640625
3443		-60.546875
3444		-56.640625
3445		-60.546875
3446		-56.640625
3447		-60.546875
3448		-58.593750
3449		-60.546875
3450		-58.593750
3451		-60.546875
3452		-58.593750
3453		-62.500000
3454		-58.593750
3455		-62.500000
3456		-58.593750
3457		-62.500000
3458		-60.546875
3459		-62.500000
3460		-58.593750
3461		-62.500000
3462		-58.593750
3463		-62.500000
3464		-60.546875
3465		-62.500000
3466		-60.546875
3467		-62.500000
3468		-58.593750
3469		-62.500000
3470		-58.593750
3471		-62.500000
3472		-58.593750
3473		-62.500000
3474		-58.593750
3475		-60.546875
3476		-58.593750
3477		-60.546875
3478		-56.640625
3479		-60.546875
3480		-58.593750
3481		-60.546875
3482		-58.593750
3483		-60.546875
3484		-56.640625
3485		-60.546875
3486		-56.640625
3487		-58.593750
3488		-56.640625
3489		-58.593750
3490		-54.687500
3491		-58.593750
3492		-54.687500
3493		-56.640625
3494		-54.687500
3495		-56.640625
3496		-52.734375
3497		-56.640625
3498		-52.734375
3499		-54.687500
3500		-50.781250
3501		-52.734375
3502		-50.781250
3503		-52.734375
3504		-48.828125
3505		-52.734375
3506		-48.828125
3507		-50.781250
3508		-46.875000
3509		-48.828125
3510		-46.875000
3511		-48.828125
3512		-44.921875
3513		-46.875000
3514		-42.968750
3515		-46.875000
3516		-42.968750
3517		-44.921875
3518		-41.015625
3519		-42.968750
3520		-41.015625
3521		-42.968750
3522		-39.062500
3523		-41.015625
3524		-37.109375
3525		-39.062500
3526		-37.109375
3527		-39.062500
3528		-33.203125
3529		-37.109375
3530		-33.203125
3531		-35.156250
3532		-31.250000
3533		-33.203125
3534		-29.296875
3535		-33.203125
3536		-29.296875
3537		-31.250000
3538		-27.343750
3539		-29.296875
3540		-25.390625
3541		-27.343750
3542		-23.437500
3543		-25.390625
3544		-21.484375
3545		-25.390625
3546		-19.531250
3547		-23.437500
3548		-17.578125
3549		-21.484375
3550		-15.625000
3551		-19.531250
3552		-15.625000
3553		-17.578125
3554		-13.671875
3555		-15.625000
3556		-11.718750
3557		-13.671875
3558		-9.765625
3559		-11.718750
3560		-7.812500
3561		-9.765625
3562		-7.812500
3563		-9.765625
3564		-3.906250
3565		-5.859375
3566		-3.906250
3567		-5.859375
3568		-1.953125
3569		-3.906250
3570		0.000000
3571		-1.953125
3572		1.953125
3573		0.000000
3574		3.906250
3575		1.953125
3576		5.859375
3577		3.906250
3578		7.812500
3579		5.859375
3580		9.765625
3581		7.812500
3582		11.718750
3583		9.765625
3584		13.671875
3585		11.718750
3586		15.625000
3587		13.671875
3588		15.625000
3589		13.671875
3590		17.578125
3591		17.578125
3592		19.531250
3593		17.578125
3594		21.484375
3595		19.531250
3596		23.437500
3597		21.484375
3598		25.390625
3599		23.437500
3600		27.343750
3601		25.390625
3602		29.296875
3603		27.343750
3604		29.296875
3605		27.343750
3606		33.203125
3607		29.296875
3608		33.203125
3609		31.250000
3610		35.156250
3611		33.203125
3612		37.109375
3613		35.156250
3614		39.062500
3615		37.109375
3616		39.062500
3617		37.109375
3618		42.968750
3619		39.062500
3620		42.968750
3621		41.015625
3622		44.921875
3623		41.015625
3624		46.875000
3625		42.968750
3626		46.875000
3627		44.921875
3628		48.828125
3629		44.921875
3630		50.781250
3631		46.875000
3632		50.781250
3633		48.828125
3634		52.734375
3635		50.781250
3636		54.687500
3637		52.734375
3638		54.687500
3639		52.734375
3640		56.640625
3641		54.687500
3642		56.640625
3643		54.687500
3644		58.593750
3645		56.640625
3646		60.546875
3647		58.593750
3648		60.546875
3649		58.593750
3650		62.500000
3651		60.546875
3652		62.500000
3653		60.546875
3654		64.453125
3655		62.500000
3656		66.406250
3657		62.500000
3658		66.406250
3659		64.453125
3660		66.406250
3661		64.453125
3662		68.359375
3663		64.453125
3664		68.359375
3665		66.406250
3666		68.359375
3667		66.406250
3668		70.312500
3669		68.359375
3670		70.312500
3671		68.359375
3672		70.312500
3673		68.359375
3674		72.265625
3675		68.359375
3676		72.265625
3677		70.312500
3678		72.265625
3679		70.312500
3680		74.218750
3681		70.312500
3682		74.218750
3683		70.312500
3684		74.218750
3685		72.265625
3686		74.218750
3687		72.265625
3688		74.218750
3689		72.265625
3690		74.218750
3691		72.265625
3692		76.171875
3693		72.265625
3694		74.218750
3695		72.265625
3696		76.171875
3697		72.265625
3698		76.171875
3699		72.265625
3700		76.171875
3701		72.265625
3702		76.171875
3703		72.265625
3704		76.171875
3705		72.265625
3706		76.171875
3707		72.265625
3708		76.171875
3709		72.265625
3710		76.171875
3711		72.265625
3712		74.218750
3713		72.265625
3714		76.171875
3715		72.265625
3716		74.218750
3717		72.265625
3718		74.218750
3719		70.312500
3720		74.218750
3721		70.312500
3722		74.218750
3723		70.312500
3724		74.218750
3725		70.312500
3726		72.265625
3727		70.312500
3728		72.265625
3729		68.359375
3730		72.265625
3731		68.359375
3732		72.265625
3733		68.359375
3734		70.312500
3735		66.406250
3736		70.312500
3737		66.406250
3738		70.312500
3739		64.453125
3740		68.359375
3741		64.453125
3742		68.359375
3743		64.453125
3744		66.406250
3745		62.500000
3746		66.406250
3747		62.500000
3748		64.453125
3749		60.546875
3750		64.453125
3751		60.546875
3752		62.500000
3753		58.593750
3754		62.500000
3755		56.640625
3756		60.546875
3757		54.687500
3758		58.593750
3759		54.687500
3760		58.593750
3761		54.687500
3762		56.640625
3763		52.734375
3764		56.640625
3765		52.734375
3766		54.687500
3767		50.781250
3768		54.687500
3769		48.828125
3770		52.734375
3771		46.875000
3772		50.781250
3773		46.875000
3774		50.781250
3775		44.921875
3776		48.828125
3777		42.968750
3778		46.875000
3779		41.015625
3780		44.921875
3781		41.015625
3782		42.968750
3783		39.062500
3784		42.968750
3785		37.109375
3786		41.015625
3787		35.156250
3788		39.062500
3789		33.203125
3790		37.109375
3791		33.203125
3792		35.156250
3793		31.250000
3794		33.203125
3795		29.296875
3796		33.203125
3797		27.343750
3798		31.250000
3799		25.390625
3800		29.296875
3801		23.437500
3802		27.343750
3803		21.484375
3804		25.390625
3805		19.531250
3806		23.437500
3807		17.578125
3808		21.484375
3809		17.578125
3810		21.484375
3811		15.625000
3812		17.578125
3813		13.671875
3814		17.578125
3815		11.718750
3816		15.625000
3817		9.765625
3818		13.671875
3819		7.812500
3820		11.718750
3821		5.859375
3822		9.765625
3823		3.906250
3824		7.812500
3825		1.953125
3826		5.859375
3827		0.000000
3828		3.906250
3829		-1.953125
3830		1.953125
3831		-3.906250
3832		0.000000
3833		-5.859375
3834		-1.953125
3835		-5.859375
3836		-3.906250
3837		-9.765625
3838		-3.906250
3839		-11.718750
3840		-5.859375
3841		-13.671875
3842		-9.765625
3843		-13.671875
3844		-11.718750
3845		-15.625000
3846		-11.718750
3847		-17.578125
3848		-13.671875
3849		-19.531250
3850		-15.625000
3851		-21.484375
3852		-17.578125
3853		-23.437500
3854		-19.531250
3855		-25.390625
3856		-21.484375
3857		-25.390625
3858		-23.437500
3859		-27.343750
3860		-23.437500
3861		-29.296875
3862		-25.390625
3863		-31.250000
3864		-27.343750
3865		-33.203125
3866		-29.296875
3867		-33.203125
3868		-31.250000
3869		-35.156250
3870		-33.203125
3871		-37.109375
3872		-33.203125
3873		-39.062500
3874		-35.156250
3875		-41.015625
3876		-37.109375
3877		-41.015625
3878		-37.109375
3879		-42.968750
3880		-39.062500
3881		-42.968750
3882		-39.062500
3883		-44.921875
3884		-41.015625
3885		-46.875000
3886		-42.968750
3887		-46.875000
3888		-42.968750
3889		-48.828125
3890		-44.921875
3891		-50.781250
3892		-46.875000
3893		-50.781250
3894		-46.875000
3895		-50.781250
3896		-48.828125
3897		-52.734375
3898		-48.828125
3899		-54.687500
3900		-50.781250
3901		-54.687500
3902		-50.781250
3903		-56.640625
3904		-52.734375
3905		-56.640625
3906		-52.734375
3907		-56.640625
3908		-54.687500
3909		-58.593750
3910		-54.687500
3911		-58.593750
3912		-54.687500
3913		-58.593750
3914		-56.640625
3915		-60.546875
3916		-56.640625
3917		-60.546875
3918		-56.640625
3919		-60.546875
3920		-56.640625
3921		-60.546875
3922		-56.640625
3923		-60.546875
3924		-58.593750
3925		-62.500000
3926		-58.593750
3927		-60.546875
3928		-58.593750
3929		-60.546875
3930		-58.593750
3931		-62.500000
3932		-58.593750
3933		-62.500000
3934		-58.593750
3935		-62.500000
3936		-58.593750
3937		-62.500000
3938		-58.593750
3939		-62.500000
3940		-58.593750
3941		-62.500000
3942		-58.593750
3943		-62.500000
3944		-58.593750
3945		-60.546875
3946		-58.593750
3947		-60.546875
3948		-56.640625
3949		-60.546875
3950		-58.593750
3951		-60.546875
3952		-56.640625
3953		-58.593750
3954		-56.640625
3955		-58.593750
3956		-56.640625
3957		-58.593750
3958		-54.687500
3959		-58.593750
3960		-54.687500
3961		-56.640625
3962		-54.687500
3963		-56.640625
3964		-54.687500
3965		-56.640625
3966		-52.734375
3967		-56.640625
3968		-52.734375
3969		-54.687500
3970		-50.781250
3971		-54.687500
3972		-50.781250
3973		-52.734375
3974		-48.828125
3975		-50.781250
3976		-48.828125
3977		-52.734375
3978		-46.875000
3979		-48.828125
3980		-46.875000
3981		-48.828125
3982		-44.921875
3983		-46.875000
3984		-42.968750
3985		-46.875000
3986		-42.968750
3987		-44.921875
3988		-41.015625
3989		-42.968750
3990		-39.062500
3991		-42.968750
3992		-39.062500
3993		-41.015625
3994		-37.109375
3995		-39.062500
3996		-37.109375
3997		-39.062500
3998		-35.156250
3999		-37.109375
4000		-33.203125
4001		-35.156250
4002		-33.203125
4003		-33.203125
4004		-31.250000
4005		-33.203125
4006		-29.296875
4007		-31.250000
4008		-27.343750
4009		-29.296875
4010		-25.390625
4011		-27.343750
4012		-25.390625
4013		-25.390625
4014		-23.437500
4015		-25.390625
4016		-19.531250
4017		-23.437500
4018		-19.531250
4019		-21.484375
4020		-17.578125
4021		-19.531250
4022		-15.625000
4023		-17.578125
4024		-13.671875
4025		-15.625000
4026		-11.718750
4027		-15.625000
4028		-9.765625
4029		-11.718750
4030		-9.765625
4031		-11.718750
4032		-5.859375
4033		-9.765625
4034		-5.859375
4035		-7.812500
4036		-3.906250
4037		-5.859375
4038		-1.953125
4039		-3.906250
4040		0.000000
4041		-1.953125
4042		1.953125
4043		0.000000
4044		3.906250
4045		1.953125
4046		5.859375
4047		3.906250
4048		5.859375
4049		3.906250
4050		7.812500
4051		7.812500
4052		9.765625
4053		9.765625
4054		11.718750
4055		9.765625
4056		15.625000
4057		11.718750
4058		15.625000
4059		13.671875
4060		17.578125
4061		15.625000
4062		19.531250
4063		17.578125
4064		21.484375
4065		19.531250
4066		23.437500
4067		19.531250
4068		25.390625
4069		21.484375
4070		25.390625
4071		23.437500
4072		27.343750
4073		25.390625
4074		31.250000
4075		27.343750
4076		31.250000
4077		29.296875
4078		33.203125
4079		31.250000
4080		35.156250
4081		33.203125
4082		37.109375
4083		35.156250
4084		37.109375
4085		37.109375
4086		39.062500
4087		37.109375
4088		41.015625
4089		39.062500
4090		42.968750
4091		39.062500
4092		44.921875
4093		41.015625
4094		44.921875
4095		42.968750
4096		46.875000
4097		44.921875
4098		48.828125
4099		44.921875
4100		50.781250
4101		46.875000
4102		50.781250
4103		48.828125
4104		52.734375
4105		50.781250
4106		54.687500
4107		50.781250
4108		56.640625
4109		52.734375
4110		56.640625
4111		52.734375
4112		58.593750
4113		56.640625
4114		58.593750
4115		56.640625
4116		60.546875
4117		56.640625
4118		62.500000
4119		58.593750
4120		62.500000
4121		58.593750
4122		62.500000
4123		60.546875
4124		64.453125
4125		62.500000
4126		66.406250
4127		62.500000
4128		66.406250
4129		64.453125
4130		66.406250
4131		64.453125
4132		66.406250
4133		64.453125
4134		68.359375
4135		66.406250
4136		70.312500
4137		66.406250
4138		70.312500
4139		66.406250
4140		72.265625
4141		68.359375
4142		72.265625
4143		68.359375
4144		72.265625
4145		68.359375
4146		72.265625
4147		70.312500
4148		72.265625
4149		70.312500
4150		74.218750
4151		70.312500
4152		74.218750
4153		70.312500
4154		76.171875
4155		70.312500
4156		76.171875
4157		72.265625
4158		76.171875
4159		72.265625
4160		76.171875
4161		72.265625
4162		76.171875
4163		74.218750
4164		76.171875
4165		74.218750
4166		76.171875
4167		72.265625
4168		78.125000
4169		72.265625
4170		78.125000
4171		72.265625
4172		78.125000
4173		72.265625
4174		78.125000
4175		72.265625
4176		78.125000
4177		72.265625
4178		78.125000
4179		74.218750
4180		76.171875
4181		74.218750
4182		76.171875
4183		72.265625
4184		76.171875
4185		72.265625
4186		76.171875
4187		72.265625
4188		76.171875
4189		72.265625
4190		76.171875
4191		70.312500
4192		76.171875
4193		70.312500
4194		76.171875
4195		70.312500
4196		74.218750
4197		70.312500
4198		74.218750
4199		68.359375
4200		72.265625
4201		68.359375
4202		74.218750
4203		68.359375
4204		72.265625
4205		66.406250
4206		72.265625
4207		66.406250
4208		72.265625
4209		66.406250
4210		70.312500
4211		64.453125
4212		70.312500
4213		64.453125
4214		68.359375
4215		64.453125
4216		66.406250
4217		62.500000
4218		66.406250
4219		62.500000
4220		64.453125
4221		60.546875
4222		64.453125
4223		60.546875
4224		62.500000
4225		58.593750
4226		62.500000
4227		58.593750
4228		60.546875
4229		56.640625
4230		60.546875
4231		56.640625
4232		58.593750
4233		54.687500
4234		58.593750
4235		52.734375
4236		56.640625
4237		52.734375
4238		54.687500
4239		50.781250
4240		54.687500
4241		48.828125
4242		52.734375
4243		48.828125
4244		50.781250
4245		44.921875
4246		48.828125
4247		44.921875
4248		48.828125
4249		42.968750
4250		46.875000
4251		42.968750
4252		44.921875
4253		41.015625
4254		42.968750
4255		39.062500
4256		42.968750
4257		37.109375
4258		41.015625
4259		35.156250
4260		39.062500
4261		35.156250
4262		37.109375
4263		33.203125
4264		35.156250
4265		31.250000
4266		35.156250
4267		29.296875
4268		33.203125
4269		27.343750
4270		31.250000
4271		25.390625
4272		29.296875
4273		23.437500
4274		27.343750
4275		21.484375
4276		25.390625
4277		19.531250
4278		23.437500
4279		19.531250
4280		21.484375
4281		17.578125
4282		19.531250
4283		15.625000
4284		19.531250
4285		13.671875
4286		17.578125
4287		11.718750
4288		15.625000
4289		9.765625
4290		13.671875
4291		7.812500
4292		11.718750
4293		5.859375
4294		9.765625
4295		3.906250
4296		7.812500
4297		1.953125
4298		5.859375
4299		0.000000
4300		3.906250
4301		-1.953125
4302		1.953125
4303		-3.906250
4304		0.000000
4305		-3.906250
4306		-1.953125
4307		-7.812500
4308		-3.906250
4309		-7.812500
4310		-5.859375
4311		-9.765625
4312		-7.812500
4313		-11.718750
4314		-9.765625
4315		-13.671875
4316		-9.765625
4317		-17.578125
4318		-9.765625
4319		-19.531250
4320		-11.718750
4321		-23.437500
4322		-11.718750
4323		-21.484375
4324		-15.625000
4325		-23.437500
4326		-19.531250
4327		-23.437500
4328		-21.484375
4329		-25.390625
4330		-23.437500
4331		-27.343750
4332		-25.390625
4333		-29.296875
4334		-25.390625
4335		-33.203125
4336		-25.390625
4337		-35.156250
4338		-25.390625
4339		-37.109375
4340		-27.343750
4341		-35.156250
4342		-31.250000
4343		-37.109375
4344		-33.203125
4345		-39.062500
4346		-35.156250
4347		-39.062500
4348		-37.109375
4349		-41.015625
4350		-39.062500
4351		-44.921875
4352		-37.109375
4353		-46.875000
4354		-39.062500
4355		-46.875000
4356		-39.062500
4357		-46.875000
4358		-42.968750
4359		-46.875000
4360		-44.921875
4361		-48.828125
4362		-44.921875
4363		-48.828125
4364		-46.875000
4365		-50.781250
4366		-48.828125
4367		-54.687500
4368		-46.875000
4369		-54.687500
4370		-46.875000
4371		-56.640625
4372		-46.875000
4373		-56.640625
4374		-48.828125
4375		-54.687500
4376		-52.734375
4377		-56.640625
4378		-52.734375
4379		-56.640625
4380		-54.687500
4381		-56.640625
4382		-54.687500
4383		-58.593750
4384		-54.687500
4385		-60.546875
4386		-52.734375
4387		-62.500000
4388		-52.734375
4389		-62.500000
4390		-52.734375
4391		-60.546875
4392		-56.640625
4393		-60.546875
4394		-58.593750
4395		-60.546875
4396		-58.593750
4397		-60.546875
4398		-58.593750
4399		-60.546875
4400		-58.593750
4401		-64.453125
4402		-56.640625
4403		-64.453125
4404		-54.687500
4405		-64.453125
4406		-56.640625
4407		-64.453125
4408		-56.640625
4409		-62.500000
4410		-58.593750
4411		-60.546875
4412		-58.593750
4413		-60.546875
4414		-58.593750
4415		-60.546875
4416		-58.593750
4417		-60.546875
4418		-58.593750
4419		-64.453125
4420		-54.687500
4421		-64.453125
4422		-54.687500
4423		-62.500000
4424		-54.687500
4425		-58.593750
4426		-56.640625
4427		-58.593750
4428		-56.640625
4429		-58.593750
4430		-56.640625
4431		-58.593750
4432		-54.687500
4433		-56.640625
4434		-54.687500
4435		-58.593750
4436		-50.781250
4437		-58.593750
4438		-48.828125
4439		-58.593750
4440		-48.828125
4441		-54.687500
4442		-50.781250
4443		-52.734375
4444		-50.781250
4445		-52.734375
4446		-48.828125
4447		-50.781250
4448		-48.828125
4449		-50.781250
4450		-46.875000
4451		-50.781250
4452		-42.968750
4453		-50.781250
4454		-42.968750
4455		-50.781250
4456		-41.015625
4457		-48.828125
4458		-41.015625
4459		-44.921875
4460		-41.015625
4461		-42.968750
4462		-41.015625
4463		-42.968750
4464		-39.062500
4465		-41.015625
4466		-37.109375
4467		-39.062500
4468		-37.109375
4469		-41.015625
4470		-31.250000
4471		-39.062500
4472		-31.250000
4473		-37.109375
4474		-29.296875
4475		-33.203125
4476		-31.250000
4477		-33.203125
4478		-29.296875
4479		-31.250000
4480		-27.343750
4481		-29.296875
4482		-25.390625
4483		-27.343750
4484		-23.437500
4485		-27.343750
4486		-19.531250
4487		-27.343750
4488		-17.578125
4489		-25.390625
4490		-15.625000
4491		-23.437500
4492		-15.625000
4493		-19.531250
4494		-15.625000
4495		-17.578125
4496		-13.671875
4497		-15.625000
4498		-11.718750
4499		-13.671875
4500		-11.718750
4501		-11.718750
4502		-9.765625
4503		-11.718750
4504		-7.812500
4505		-9.765625
4506		-1.953125
4507		-7.812500
4508		-1.953125
4509		-5.859375
4510		-1.953125
4511		-3.906250
4512		0.000000
4513		-1.953125
4514		1.953125
4515		0.000000
4516		3.906250
4517		1.953125
4518		5.859375
4519		3.906250
4520		7.812500
4521		3.906250
4522		11.718750
4523		5.859375
4524		13.671875
4525		9.765625
4526		11.718750
4527		11.718750
4528		13.671875
4529		13.671875
4530		15.625000
4531		13.671875
4532		17.578125
4533		15.625000
4534		19.531250
4535		17.578125
4536		21.484375
4537		19.531250
4538		25.390625
4539		21.484375
4540		27.343750
4541		23.437500
4542		25.390625
4543		25.390625
4544		27.343750
4545		25.390625
4546		29.296875
4547		27.343750
4548		31.250000
4549		29.296875
4550		33.203125
4551		31.250000
4552		35.156250
4553		33.203125
4554		37.109375
4555		35.156250
4556		37.109375
4557		37.109375
4558		39.062500
4559		39.062500
4560		41.015625
4561		39.062500
4562		42.968750
4563		41.015625
4564		42.968750
4565		42.968750
4566		44.921875
4567		42.968750
4568		46.875000
4569		44.921875
4570		48.828125
4571		46.875000
4572		48.828125
4573		48.828125
4574		50.781250
4575		48.828125
4576		52.734375
4577		50.781250
4578		52.734375
4579		50.781250
4580		54.687500
4581		52.734375
4582		56.640625
4583		54.687500
4584		56.640625
4585		54.687500
4586		58.593750
4587		56.640625
4588		58.593750
4589		56.640625
4590		60.546875
4591		58.593750
4592		62.500000
4593		60.546875
4594		62.500000
4595		60.546875
4596		64.453125
4597		62.500000
4598		64.453125
4599		62.500000
4600		66.406250
4601		64.453125
4602		66.406250
4603		64.453125
4604		68.359375
4605		64.453125
4606		68.359375
4607		66.406250
4608		68.359375
4609		66.406250
4610		70.312500
4611		66.406250
4612		70.312500
4613		68.359375
4614		70.312500
4615		70.312500
4616		72.265625
4617		70.312500
4618		72.265625
4619		70.312500
4620		74.218750
4621		70.312500
4622		74.218750
4623		70.312500
4624		74.218750
4625		72.265625
4626		74.218750
4627		72.265625
4628		76.171875
4629		72.265625
4630		74.218750
4631		72.265625
4632		74.218750
4633		72.265625
4634		76.171875
4635		74.218750
4636		76.171875
4637		72.265625
4638		76.171875
4639		72.265625
4640		76.171875
4641		72.265625
4642		76.171875
4643		72.265625
4644		76.171875
4645		72.265625
4646		76.171875
4647		74.218750
4648		76.171875
4649		74.218750
4650		76.171875
4651		74.218750
4652		76.171875
4653		72.265625
4654		76.171875
4655		72.265625
4656		76.171875
4657		72.265625
4658		74.218750
4659		72.265625
4660		76.171875
4661		72.265625
4662		74.218750
4663		72.265625
4664		74.218750
4665		72.265625
4666		74.218750
4667		70.312500
4668		74.218750
4669		70.312500
4670		72.265625
4671		68.359375
4672		74.218750
4673		68.359375
4674		72.265625
4675		68.359375
4676		70.312500
4677		66.406250
4678		72.265625
4679		66.406250
4680		70.312500
4681		66.406250
4682		68.359375
4683		66.406250
4684		68.359375
4685		64.453125
4686		68.359375
4687		62.500000
4688		68.359375
4689		62.500000
4690		66.406250
4691		62.500000
4692		64.453125
4693		60.546875
4694		64.453125
4695		60.546875
4696		64.453125
4697		58.593750
4698		62.500000
4699		58.593750
4700		60.546875
4701		56.640625
4702		60.546875
4703		52.734375
4704		60.546875
4705		52.734375
4706		58.593750
4707		52.734375
4708		56.640625
4709		50.781250
4710		54.687500
4711		48.828125
4712		54.687500
4713		48.828125
4714		52.734375
4715		46.875000
4716		50.781250
4717		46.875000
4718		48.828125
4719		44.921875
4720		46.875000
4721		42.968750
4722		46.875000
4723		41.015625
4724		44.921875
4725		41.015625
4726		42.968750
4727		37.109375
4728		42.968750
4729		37.109375
4730		41.015625
4731		35.156250
4732		39.062500
4733		33.203125
4734		37.109375
4735		33.203125
4736		35.156250
4737		29.296875
4738		33.203125
4739		29.296875
4740		33.203125
4741		27.343750
4742		31.250000
4743		25.390625
4744		29.296875
4745		23.437500
4746		27.343750
4747		21.484375
4748		25.390625
4749		19.531250
4750		23.437500
4751		17.578125
4752		21.484375
4753		15.625000
4754		19.531250
4755		13.671875
4756		19.531250
4757		11.718750
4758		17.578125
4759		11.718750
4760		13.671875
4761		7.812500
4762		13.671875
4763		7.812500
4764		11.718750
4765		5.859375
4766		9.765625
4767		3.906250
4768		7.812500
4769		1.953125
4770		5.859375
4771		0.000000
4772		3.906250
4773		-1.953125
4774		1.953125
4775		-3.906250
4776		0.000000
4777		-5.859375
4778		-1.953125
4779		-7.812500
4780		-3.906250
4781		-9.765625
4782		-5.859375
4783		-9.765625
4784		-7.812500
4785		-13.671875
4786		-9.765625
4787		-15.625000
4788		-11.718750
4789		-15.625000
4790		-11.718750
4791		-17.578125
4792		-15.625000
4793		-19.531250
4794		-15.625000
4795		-21.484375
4796		-17.578125
4797		-23.437500
4798		-19.531250
4799		-25.390625
4800		-21.484375
4801		-25.390625
4802		-23.437500
4803		-27.343750
4804		-25.390625
4805		-29.296875
4806		-25.390625
4807		-31.250000
4808		-27.343750
4809		-33.203125
4810		-29.296875
4811		-33.203125
4812		-31.250000
4813		-35.156250
4814		-31.250000
4815		-37.109375
4816		-33.203125
4817		-39.062500
4818		-35.156250
4819		-39.062500
4820		-37.109375
4821		-41.015625
4822		-39.062500
4823		-42.968750
4824		-39.062500
4825		-42.968750
4826		-41.015625
4827		-44.921875
4828		-42.968750
4829		-46.875000
4830		-42.968750
4831		-48.828125
4832		-44.921875
4833		-48.828125
4834		-44.921875
4835		-48.828125
4836		-46.875000
4837		-50.781250
4838		-46.875000
4839		-50.781250
4840		-48.828125
4841		-52.734375
4842		-48.828125
4843		-52.734375
4844		-50.781250
4845		-54.687500
4846		-50.781250
4847		-54.687500
4848		-52.734375
4849		-54.687500
4850		-52.734375
4851		-56.640625
4852		-54.687500
4853		-56.640625
4854		-54.687500
4855		-58.593750
4856		-54.687500
4857		-58.593750
4858		-56.640625
4859		-58.593750
4860		-56.640625
4861		-58.593750
4862		-56.640625
4863		-60.546875
4864		-56.640625
4865		-60.546875
4866		-58.593750
4867		-60.546875
4868		-58.593750
4869		-60.546875
4870		-58.593750
4871		-60.546875
4872		-58.593750
4873		-60.546875
4874		-58.593750
4875		-60.546875
4876		-58.593750
4877		-62.500000
4878		-58.593750
4879		-60.546875
4880		-58.593750
4881		-60.546875
4882		-58.593750
4883		-60.546875
4884		-58.593750
4885		-60.546875
4886		-58.593750
4887		-60.546875
4888		-58.593750
4889		-60.546875
4890		-58.593750
4891		-60.546875
4892		-58.593750
4893		-60.546875
4894		-56.640625
4895		-58.593750
4896		-56.640625
4897		-58.593750
4898		-56.640625
4899		-58.593750
4900		-56.640625
4901		-56.640625
4902		-54.687500
4903		-56.640625
4904		-54.687500
4905		-56.640625
4906		-52.734375
4907		-54.687500
4908		-52.734375
4909		-54.687500
4910		-52.734375
4911		-54.687500
4912		-50.781250
4913		-52.734375
4914		-50.781250
4915		-52.734375
4916		-50.781250
4917		-52.734375
4918		-48.828125
4919		-50.781250
4920		-48.828125
4921		-48.828125
4922		-46.875000
4923		-50.781250
4924		-44.921875
4925		-46.875000
4926		-44.921875
4927		-46.875000
4928		-42.968750
4929		-44.921875
4930		-42.968750
4931		-42.968750
4932		-41.015625
4933		-42.968750
4934		-39.062500
4935		-41.015625
4936		-39.062500
4937		-41.015625
4938		-37.109375
4939		-39.062500
4940		-33.203125
4941		-39.062500
4942		-33.203125
4943		-35.156250
4944		-33.203125
4945		-35.156250
4946		-31.250000
4947		-33.203125
4948		-29.296875
4949		-31.250000
4950		-27.343750
4951		-29.296875
4952		-27.343750
4953		-27.343750
4954		-25.390625
4955		-27.343750
4956		-21.484375
4957		-25.390625
4958		-19.531250
4959		-25.390625
4960		-19.531250
4961		-21.484375
4962		-17.578125
4963		-19.531250
4964		-15.625000
4965		-17.578125
4966		-13.671875
4967		-15.625000
4968		-13.671875
4969		-15.625000
4970		-11.718750
4971		-11.718750
4972		-9.765625
4973		-11.718750
4974		-5.859375
4975		-11.718750
4976		-5.859375
4977		-7.812500
4978		-3.906250
4979		-5.859375
4980		-1.953125
4981		-3.906250
4982		0.000000
4983		-1.953125
4984		1.953125
4985		0.000000
4986		3.906250
4987		1.953125
4988		5.859375
4989		3.906250
4990		7.812500
4991		3.906250
4992		9.765625
4993		7.812500
4994		9.765625
4995		9.765625
4996		11.718750
4997		9.765625
4998		13.671875
4999		11.718750
5000		15.625000
5001		13.671875
5002		17.578125
5003		15.625000
5004		19.531250
5005		17.578125
5006		21.484375
5007		17.578125
5008		23.437500
5009		19.531250
5010		25.390625
5011		23.437500
5012		25.390625
5013		23.437500
5014		27.343750
5015		25.390625
5016		29.296875
5017		27.343750
5018		31.250000
5019		29.296875
5020		33.203125
5021		31.250000
5022		33.203125
5023		31.250000
5024		37.109375
5025		33.203125
5026		39.062500
5027		35.156250
5028		39.062500
5029		37.109375
5030		41.015625
5031		39.062500
5032		41.015625
5033		41.015625
5034		42.968750
5035		41.015625
5036		44.921875
5037		42.968750
5038		46.875000
5039		44.921875
5040		50.781250
5041		44.921875
5042		50.781250
5043		46.875000
5044		50.781250
5045		48.828125
5046		52.734375
5047		50.781250
5048		52.734375
5049		50.781250
5050		54.687500
5051		52.734375
5052		56.640625
5053		54.687500
5054		56.640625
5055		54.687500
5056		58.593750
5057		54.687500
5058		60.546875
5059		56.640625
5060		62.500000
5061		58.593750
5062		60.546875
5063		60.546875
5064		62.500000
5065		60.546875
5066		64.453125
5067		62.500000
5068		64.453125
5069		62.500000
5070		64.453125
5071		62.500000
5072		66.406250
5073		62.500000
5074		68.359375
5075		64.453125
5076		70.312500
5077		66.406250
5078		68.359375
5079		66.406250
5080		70.312500
5081		66.406250
5082		70.312500
5083		68.359375
5084		70.312500
5085		68.359375
5086		72.265625
5087		70.312500
5088		72.265625
5089		70.312500
5090		72.265625
5091		70.312500
5092		74.218750
5093		70.312500
5094		74.218750
5095		72.265625
5096		74.218750
5097		72.265625
5098		74.218750
5099		72.265625
5100		74.218750
5101		72.265625
5102		74.218750
5103		74.218750
5104		76.171875
5105		74.218750
5106		76.171875
5107		72.265625
5108		78.125000
5109		72.265625
5110		78.125000
5111		74.218750
5112		76.171875
5113		74.218750
5114		76.171875
5115		74.218750
5116		76.171875
5117		74.218750
5118		76.171875
5119		74.218750
5120		76.171875
5121		74.218750
5122		76.171875
5123		72.265625
5124		76.171875
5125		72.265625
5126		76.171875
5127		74.218750
5128		76.171875
5129		72.265625
5130		74.218750
5131		72.265625
5132		76.171875
5133		72.265625
5134		74.218750
5135		72.265625
5136		74.218750
5137		72.265625
5138		74.218750
5139		70.312500
5140		74.218750
5141		70.312500
5142		74.218750
5143		70.312500
5144		72.265625
5145		70.312500
5146		72.265625
5147		68.359375
5148		70.312500
5149		68.359375
5150		70.312500
5151		66.406250
5152		70.312500
5153		66.406250
5154		68.359375
5155		66.406250
5156		68.359375
5157		62.500000
5158		68.359375
5159		64.453125
5160		66.406250
5161		62.500000
5162		66.406250
5163		62.500000
5164		64.453125
5165		60.546875
5166		64.453125
5167		60.546875
5168		62.500000
5169		58.593750
5170		62.500000
5171		58.593750
5172		60.546875
5173		56.640625
5174		58.593750
5175		54.687500
5176		58.593750
5177		54.687500
5178		56.640625
5179		52.734375
5180		54.687500
5181		50.781250
5182		54.687500
5183		50.781250
5184		52.734375
5185		48.828125
5186		52.734375
5187		46.875000
5188		50.781250
5189		46.875000
5190		48.828125
5191		44.921875
5192		46.875000
5193		42.968750
5194		46.875000
5195		41.015625
5196		44.921875
5197		41.015625
5198		42.968750
5199		39.062500
5200		41.015625
5201		37.109375
5202		39.062500
5203		35.156250
5204		39.062500
5205		33.203125
5206		37.109375
5207		31.250000
5208		35.156250
5209		29.296875
5210		33.203125
5211		29.296875
5212		31.250000
5213		27.343750
5214		29.296875
5215		25.390625
5216		27.343750
5217		23.437500
5218		27.343750
5219		21.484375
5220		25.390625
5221		19.531250
5222		23.437500
5223		17.578125
5224		21.484375
5225		15.625000
5226		19.531250
5227		13.671875
5228		17.578125
5229		11.718750
5230		15.625000
5231		11.718750
5232		13.671875
5233		9.765625
5234		11.718750
5235		5.859375
5236		9.765625
5237		5.859375
5238		7.812500
5239		3.906250
5240		5.859375
5241		1.953125
5242		3.906250
5243		0.000000
5244		1.953125
5245		-1.953125
5246		1.953125
5247		-3.906250
5248		0.000000
5249		-5.859375
5250		-1.953125
5251		-7.812500
5252		-3.906250
5253		-9.765625
5254		-5.859375
5255		-11.718750
5256		-7.812500
5257		-13.671875
5258		-9.765625
5259		-15.625000
5260		-11.718750
5261		-15.625000
5262		-13.671875
5263		-17.578125
5264		-15.625000
5265		-19.531250
5266		-15.625000
5267		-21.484375
5268		-17.578125
5269		-23.437500
5270		-19.531250
5271		-25.390625
5272		-21.484375
5273		-27.343750
5274		-23.437500
5275		-29.296875
5276		-25.390625
5277		-29.296875
5278		-27.343750
5279		-31.250000
5280		-29.296875
5281		-33.203125
5282		-29.296875
5283		-35.156250
5284		-31.250000
5285		-35.156250
5286		-33.203125
5287		-37.109375
5288		-35.156250
5289		-39.062500
5290		-35.156250
5291		-41.015625
5292		-37.109375
5293		-41.015625
5294		-39.062500
5295		-42.968750
5296		-41.015625
5297		-44.921875
5298		-41.015625
5299		-44.921875
5300		-42.968750
5301		-46.875000
5302		-42.968750
5303		-46.875000
5304		-44.921875
5305		-48.828125
5306		-44.921875
5307		-48.828125
5308		-46.875000
5309		-50.781250
5310		-48.828125
5311		-52.734375
5312		-48.828125
5313		-52.734375
5314		-50.781250
5315		-54.687500
5316		-50.781250
5317		-54.687500
5318		-52.734375
5319		-54.687500
5320		-52.734375
5321		-56.640625
5322		-52.734375
5323		-56.640625
5324		-54.687500
5325		-56.640625
5326		-54.687500
5327		-58.593750
5328		-54.687500
5329		-58.593750
5330		-56.640625
5331		-58.593750
5332		-56.640625
5333		-58.593750
5334		-56.640625
5335		-60.546875
5336		-56.640625
5337		-60.546875
5338		-58.593750
5339		-60.546875
5340		-58.593750
5341		-60.546875
5342		-58.593750
5343		-60.546875
5344		-58.593750
5345		-60.546875
5346		-58.593750
5347		-60.546875
5348		-58.593750
5349		-60.546875
5350		-58.593750
5351		-60.546875
5352		-58.593750
5353		-60.546875
5354		-58.593750
5355		-60.546875
5356		-58.593750
5357		-60.546875
5358		-58.593750
5359		-60.546875
5360		-58.593750
5361		-60.546875
5362		-58.593750
5363		-60.546875
5364		-58.593750
5365		-58.593750
5366		-56.640625
5367		-58.593750
5368		-56.640625
5369		-58.593750
5370		-56.640625
5371		-58.593750
5372		-56.640625
5373		-56.640625
5374		-54.687500
5375		-56.640625
5376		-54.687500
5377		-56.640625
5378		-54.687500
5379		-54.687500
5380		-52.734375
5381		-54.687500
5382		-52.734375
5383		-54.687500
5384		-50.781250
5385		-52.734375
5386		-50.781250
5387		-52.734375
5388		-48.828125
5389		-50.781250
5390		-48.828125
5391		-50.781250
5392		-46.875000
5393		-48.828125
5394		-44.921875
5395		-48.828125
5396		-44.921875
5397		-46.875000
5398		-44.921875
5399		-46.875000
5400		-42.968750
5401		-44.921875
5402		-41.015625
5403		-42.968750
5404		-41.015625
5405		-42.968750
5406		-39.062500
5407		-41.015625
5408		-37.109375
5409		-39.062500
5410		-37.109375
5411		-39.062500
5412		-35.156250
5413		-37.109375
5414		-33.203125
5415		-35.156250
5416		-31.250000
5417		-33.203125
5418		-31.250000
5419		-31.250000
5420		-29.296875
5421		-31.250000
5422		-27.343750
5423		-29.296875
5424		-25.390625
5425		-27.343750
5426		-25.390625
5427		-25.390625
5428		-23.437500
5429		-23.437500
5430		-21.484375
5431		-23.437500
5432		-19.531250
5433		-21.484375
5434		-17.578125
5435		-19.531250
5436		-15.625000
5437		-17.578125
5438		-13.671875
5439		-15.625000
5440		-11.718750
5441		-13.671875
5442		-11.718750
5443		-11.718750
5444		-9.765625
5445		-9.765625
5446		-7.812500
5447		-7.812500
5448		-5.859375
5449		-7.812500
5450		-3.906250
5451		-5.859375
5452		-1.953125
5453		-3.906250
5454		0.000000
5455		-1.953125
5456		1.953125
5457		0.000000
5458		3.906250
5459		1.953125
5460		5.859375
5461		3.906250
5462		7.812500
5463		5.859375
5464		9.765625
5465		7.812500
5466		9.765625
5467		9.765625
5468		11.718750
5469		11.718750
5470		13.671875
5471		13.671875
5472		15.625000
5473		13.671875
5474		17.578125
5475		15.625000
5476		19.531250
5477		17.578125
5478		21.484375
5479		19.531250
5480		23.437500
5481		21.484375
5482		25.390625
5483		23.437500
5484		25.390625
5485		25.390625
5486		27.343750
5487		27.343750
5488		29.296875
5489		27.343750
5490		31.250000
5491		29.296875
5492		33.203125
5493		31.250000
5494		35.156250
5495		33.203125
5496		37.109375
5497		35.156250
5498		37.109375
5499		37.109375
5500		39.062500
5501		37.109375
5502		41.015625
5503		39.062500
5504		42.968750
5505		41.015625
5506		44.921875
5507		42.968750
5508		44.921875
5509		42.968750
5510		46.875000
5511		44.921875
5512		48.828125
5513		46.875000
5514		50.781250
5515		48.828125
5516		50.781250
5517		48.828125
5518		52.734375
5519		50.781250
5520		54.687500
5521		52.734375
5522		54.687500
5523		52.734375
5524		56.640625
5525		54.687500
5526		56.640625
5527		54.687500
5528		58.593750
5529		56.640625
5530		60.546875
5531		58.593750
5532		60.546875
5533		58.593750
5534		62.500000
5535		60.546875
5536		62.500000
5537		60.546875
5538		64.453125
5539		62.500000
5540		66.406250
5541		62.500000
5542		66.406250
5543		64.453125
5544		66.406250
5545		64.453125
5546		68.359375
5547		66.406250
5548		68.359375
5549		66.406250
5550		68.359375
5551		66.406250
5552		70.312500
5553		68.359375
5554		70.312500
5555		68.359375
5556		72.265625
5557		70.312500
5558		72.265625
5559		70.312500
5560		72.265625
5561		70.312500
5562		74.218750
5563		72.265625
5564		74.218750
5565		72.265625
5566		74.218750
5567		72.265625
5568		74.218750
5569		72.265625
5570		74.218750
5571		72.265625
5572		74.218750
5573		72.265625
5574		76.171875
5575		74.218750
5576		76.171875
5577		74.218750
5578		76.171875
5579		74.218750
5580		76.171875
5581		74.218750
5582		76.171875
5583		74.218750
5584		76.171875
5585		74.218750
5586		76.171875
5587		74.218750
5588		76.171875
5589		74.218750
5590		76.171875
5591		74.218750
5592		76.171875
5593		74.218750
5594		76.171875
5595		74.218750
5596		76.171875
5597		74.218750
5598		76.171875
5599		74.218750
5600		76.171875
5601		74.218750
5602		76.171875
5603		72.265625
5604		74.218750
5605		72.265625
5606		74.218750
5607		72.265625
5608		74.218750
5609		72.265625
5610		74.218750
5611		70.312500
5612		74.218750
5613		70.312500
5614		74.218750
5615		70.312500
5616		72.265625
5617		70.312500
5618		72.265625
5619		68.359375
5620		72.265625
5621		68.359375
5622		70.312500
5623		68.359375
5624		70.312500
5625		66.406250
5626		68.359375
5627		66.406250
5628		68.359375
5629		64.453125
5630		68.359375
5631		64.453125
5632		66.406250
5633		62.500000
5634		66.406250
5635		62.500000
5636		64.453125
5637		60.546875
5638		64.453125
5639		60.546875
5640		62.500000
5641		58.593750
5642		62.500000
5643		58.593750
5644		60.546875
5645		56.640625
5646		58.593750
5647		54.687500
5648		58.593750
5649		54.687500
5650		56.640625
5651		52.734375
5652		56.640625
5653		52.734375
5654		54.687500
5655		50.781250
5656		52.734375
5657		48.828125
5658		50.781250
5659		46.875000
5660		50.781250
5661		46.875000
5662		48.828125
5663		44.921875
5664		46.875000
5665		42.968750
5666		46.875000
5667		41.015625
5668		44.921875
5669		41.015625
5670		42.968750
5671		39.062500
5672		41.015625
5673		37.109375
5674		41.015625
5675		35.156250
5676		39.062500
5677		33.203125
5678		37.109375
5679		31.250000
5680		35.156250
5681		29.296875
5682		33.203125
5683		29.296875
5684		31.250000
5685		27.343750
5686		29.296875
5687		25.390625
5688		29.296875
5689		23.437500
5690		27.343750
5691		21.484375
5692		25.390625
5693		19.531250
5694		23.437500
5695		17.578125
5696		21.484375
5697		15.625000
5698		19.531250
5699		13.671875
5700		17.578125
5701		13.671875
5702		15.625000
5703		11.718750
5704		13.671875
5705		9.765625
5706		11.718750
5707		7.812500
5708		9.765625
5709		5.859375
5710		9.765625
5711		3.906250
5712		7.812500
5713		1.953125
5714		5.859375
5715		0.000000
5716		3.906250
5717		-1.953125
5718		1.953125
5719		-3.906250
5720		0.000000
5721		-5.859375
5722		-1.953125
5723		-7.812500
5724		-3.906250
5725		-9.765625
5726		-5.859375
5727		-11.718750
5728		-7.812500
5729		-11.718750
5730		-9.765625
5731		-15.625000
5732		-11.718750
5733		-15.625000
5734		-11.718750
5735		-17.578125
5736		-15.625000
5737		-19.531250
5738		-15.625000
5739		-21.484375
5740		-17.578125
5741		-23.437500
5742		-19.531250
5743		-25.390625
5744		-21.484375
5745		-25.390625
5746		-23.437500
5747		-27.343750
5748		-25.390625
5749		-29.296875
5750		-25.390625
5751		-31.250000
5752		-27.343750
5753		-33.203125
5754		-29.296875
5755		-33.203125
5756		-31.250000
5757		-35.156250
5758		-31.250000
5759		-37.109375
5760		-33.203125
5761		-37.109375
5762		-35.156250
5763		-39.062500
5764		-37.109375
5765		-41.015625
5766		-37.109375
5767		-42.968750
5768		-39.062500
5769		-42.968750
5770		-41.015625
5771		-44.921875
5772		-41.015625
5773		-44.921875
5774		-42.968750
5775		-46.875000
5776		-44.921875
5777		-48.828125
5778		-44.921875
5779		-48.828125
5780		-46.875000
5781		-50.781250
5782		-46.875000
5783		-50.781250
5784		-48.828125
5785		-52.734375
5786		-48.828125
5787		-52.734375
5788		-50.781250
5789		-52.734375
5790		-50.781250
5791		-54.687500
5792		-52.734375
5793		-54.687500
5794		-52.734375
5795		-54.687500
5796		-52.734375
5797		-56.640625
5798		-54.687500
5799		-56.640625
5800		-54.687500
5801		-58.593750
5802		-54.687500
5803		-58.593750
5804		-54.687500
5805		-58.593750
5806		-56.640625
5807		-58.593750
5808		-56.640625
5809		-58.593750
5810		-56.640625
5811		-60.546875
5812		-56.640625
5813		-60.546875
5814		-56.640625
5815		-60.546875
5816		-58.593750
5817		-60.546875
5818		-58.593750
5819		-60.546875
5820		-58.593750
5821		-60.546875
5822		-58.593750
5823		-60.546875
5824		-58.593750
5825		-60.546875
5826		-58.593750
5827		-60.546875
5828		-56.640625
5829		-60.546875
5830		-56.640625
5831		-58.593750
5832		-56.640625
5833		-58.593750
5834		-56.640625
5835		-58.593750
5836		-56.640625
5837		-58.593750
5838		-56.640625
5839		-58.593750
5840		-56.640625
5841		-56.640625
5842		-54.687500
5843		-56.640625
5844		-54.687500
5845		-56.640625
5846		-54.687500
5847		-56.640625
5848		-52.734375
5849		-54.687500
5850		-52.734375
5851		-54.687500
5852		-52.734375
5853		-52.734375
5854		-50.781250
5855		-52.734375
5856		-50.781250
5857		-52.734375
5858		-48.828125
5859		-52.734375
5860		-48.828125
5861		-50.781250
5862		-46.875000
5863		-48.828125
5864		-46.875000
5865		-46.875000
5866		-44.921875
5867		-46.875000
5868		-44.921875
5869		-44.921875
5870		-42.968750
5871		-44.921875
5872		-41.015625
5873		-42.968750
5874		-41.015625
5875		-42.968750
5876		-39.062500
5877		-41.015625
5878		-37.109375
5879		-39.062500
5880		-37.109375
5881		-37.109375
5882		-35.156250
5883		-37.109375
5884		-33.203125
5885		-35.156250
5886		-33.203125
5887		-33.203125
5888		-31.250000
5889		-33.203125
5890		-29.296875
5891		-31.250000
5892		-27.343750
5893		-29.296875
5894		-25.390625
5895		-27.343750
5896		-25.390625
5897		-25.390625
5898		-23.437500
5899		-25.390625
5900		-21.484375
5901		-23.437500
5902		-19.531250
5903		-21.484375
5904		-17.578125
5905		-19.531250
5906		-15.625000
5907		-17.578125
5908		-15.625000
5909		-15.625000
5910		-13.671875
5911		-13.671875
5912		-11.718750
5913		-11.718750
5914		-9.765625
5915		-11.718750
5916		-7.812500
5917		-9.765625
5918		-5.859375
5919		-7.812500
5920		-3.906250
5921		-5.859375
5922		-1.953125
5923		-3.906250
5924		0.000000
5925		-1.953125
5926		1.953125
5927		0.000000
5928		3.906250
5929		0.000000
5930		3.906250
5931		3.906250
5932		5.859375
5933		5.859375
5934		7.812500
5935		5.859375
5936		9.765625
5937		7.812500
5938		11.718750
5939		9.765625
5940		13.671875
5941		11.718750
5942		15.625000
5943		13.671875
5944		17.578125
5945		15.625000
5946		19.531250
5947		17.578125
5948		21.484375
5949		19.531250
5950		23.437500
5951		21.484375
5952		23.437500
5953		23.437500
5954		25.390625
5955		23.437500
5956		27.343750
5957		25.390625
5958		29.296875
5959		27.343750
5960		31.250000
5961		29.296875
5962		33.203125
5963		31.250000
5964		35.156250
5965		31.250000
5966		35.156250
5967		33.203125
5968		37.109375
5969		33.203125
5970		41.015625
5971		37.109375
5972		41.015625
5973		37.109375
5974		42.968750
5975		41.015625
5976		42.968750
5977		42.968750
5978		44.921875
5979		42.968750
5980		46.875000
5981		44.921875
5982		46.875000
5983		46.875000
5984		48.828125
5985		46.875000
5986		52.734375
5987		48.828125
5988		52.734375
5989		48.828125
5990		56.640625
5991		50.781250
5992		54.687500
5993		50.781250
5994		58.593750
5995		54.687500
5996		56.640625
5997		54.687500
5998		58.593750
5999		56.640625
6000		60.546875
6001		58.593750
6002		62.500000
6003		58.593750
6004		62.500000
6005		58.593750
6006		62.500000
6007		60.546875
6008		64.453125
6009		62.500000
6010		68.359375
6011		62.500000
6012		66.406250
6013		64.453125
6014		66.406250
6015		64.453125
6016		68.359375
6017		64.453125
6018		70.312500
6019		64.453125
6020		70.312500
6021		66.406250
6022		70.312500
6023		66.406250
6024		72.265625
6025		68.359375
6026		70.312500
6027		66.406250
6028		74.218750
6029		70.312500
6030		72.265625
6031		70.312500
6032		72.265625
6033		70.312500
6034		76.171875
6035		70.312500
6036		76.171875
6037		70.312500
6038		76.171875
6039		72.265625
6040		76.171875
6041		70.312500
6042		76.171875
6043		70.312500
6044		78.125000
6045		74.218750
6046		76.171875
6047		74.218750
6048		76.171875
6049		74.218750
6050		78.125000
6051		72.265625
6052		78.125000
6053		72.265625
6054		78.125000
6055		74.218750
6056		78.125000
6057		72.265625
6058		80.078125
6059		74.218750
6060		76.171875
6061		72.265625
6062		80.078125
6063		74.218750
6064		76.171875
6065		74.218750
6066		78.125000
6067		72.265625
6068		78.125000
6069		74.218750
6070		78.125000
6071		74.218750
6072		76.171875
6073		72.265625
6074		76.171875
6075		70.312500
6076		78.125000
6077		70.312500
6078		76.171875
6079		72.265625
6080		74.218750
6081		72.265625
6082		74.218750
6083		70.312500
6084		76.171875
6085		68.359375
6086		76.171875
6087		68.359375
6088		74.218750
6089		70.312500
6090		72.265625
6091		66.406250
6092		74.218750
6093		66.406250
6094		72.265625
6095		64.453125
6096		72.265625
6097		66.406250
6098		68.359375
6099		64.453125
6100		68.359375
6101		62.500000
6102		70.312500
6103		60.546875
6104		68.359375
6105		62.500000
6106		66.406250
6107		58.593750
6108		66.406250
6109		58.593750
6110		66.406250
6111		56.640625
6112		66.406250
6113		58.593750
6114		60.546875
6115		56.640625
6116		60.546875
6117		54.687500
6118		60.546875
6119		52.734375
6120		62.500000
6121		52.734375
6122		56.640625
6123		52.734375
6124		54.687500
6125		48.828125
6126		56.640625
6127		46.875000
6128		54.687500
6129		48.828125
6130		50.781250
6131		46.875000
6132		50.781250
6133		44.921875
6134		48.828125
6135		41.015625
6136		50.781250
6137		42.968750
6138		46.875000
6139		41.015625
6140		44.921875
6141		35.156250
6142		44.921875
6143		35.156250
6144		44.921875
6145		35.156250
6146		42.968750
6147		35.156250
6148		37.109375
6149		31.250000
6150		37.109375
6151		29.296875
6152		37.109375
6153		27.343750
6154		35.156250
6155		27.343750
6156		31.250000
6157		23.437500
6158		29.296875
6159		21.484375
6160		31.250000
6161		21.484375
6162		27.343750
6163		21.484375
6164		25.390625
6165		19.531250
6166		23.437500
6167		17.578125
6168		21.484375
6169		13.671875
6170		21.484375
6171		13.671875
6172		19.531250
6173		11.718750
6174		15.625000
6175		7.812500
6176		15.625000
6177		7.812500
6178		11.718750
6179		3.906250
6180		13.671875
6181		3.906250
6182		7.812500
6183		1.953125
6184		5.859375
6185		-1.953125
6186		5.859375
6187		-1.953125
6188		3.906250
6189		-1.953125
6190		0.000000
6191		-5.859375
6192		0.000000
6193		-7.812500
6194		0.000000
6195		-9.765625
6196		-1.953125
6197		-9.765625
6198		-5.859375
6199		-11.718750
6200		-7.812500
6201		-13.671875
6202		-7.812500
6203		-15.625000
6204		-7.812500
6205		-17.578125
6206		-11.718750
6207		-19.531250
6208		-15.625000
6209		-23.437500
6210		-13.671875
6211		-23.437500
6212		-15.625000
6213		-23.437500
6214		-19.531250
6215		-25.390625
6216		-21.484375
6217		-27.343750
6218		-23.437500
6219		-31.250000
6220		-23.437500
6221		-29.296875
6222		-25.390625
6223		-31.250000
6224		-27.343750
6225		-35.156250
6226		-27.343750
6227		-37.109375
6228		-27.343750
6229		-37.109375
6230		-31.250000
6231		-37.109375
6232		-33.203125
6233		-39.062500
6234		-35.156250
6235		-42.968750
6236		-37.109375
6237		-42.968750
6238		-35.156250
6239		-42.968750
6240		-39.062500
6241		-44.921875
6242		-39.062500
6243		-46.875000
6244		-41.015625
6245		-48.828125
6246		-41.015625
6247		-46.875000
6248		-44.921875
6249		-48.828125
6250		-44.921875
6251		-48.828125
6252		-46.875000
6253		-52.734375
6254		-44.921875
6255		-52.734375
6256		-46.875000
6257		-52.734375
6258		-48.828125
6259		-54.687500
6260		-46.875000
6261		-54.687500
6262		-50.781250
6263		-54.687500
6264		-52.734375
6265		-54.687500
6266		-52.734375
6267		-56.640625
6268		-52.734375
6269		-56.640625
6270		-54.687500
6271		-60.546875
6272		-52.734375
6273		-58.593750
6274		-54.687500
6275		-60.546875
6276		-54.687500
6277		-58.593750
6278		-56.640625
6279		-58.593750
6280		-56.640625
6281		-60.546875
6282		-56.640625
6283		-60.546875
6284		-56.640625
6285		-60.546875
6286		-56.640625
6287		-60.546875
6288		-58.593750
6289		-60.546875
6290		-58.593750
6291		-60.546875
6292		-58.593750
6293		-60.546875
6294		-56.640625
6295		-60.546875
6296		-58.593750
6297		-60.546875
6298		-58.593750
6299		-60.546875
6300		-58.593750
6301		-60.546875
6302		-56.640625
6303		-58.593750
6304		-56.640625
6305		-58.593750
6306		-56.640625
6307		-58.593750
6308		-56.640625
6309		-58.593750
6310		-56.640625
6311		-58.593750
6312		-54.687500
6313		-58.593750
6314		-54.687500
6315		-56.640625
6316		-54.687500
6317		-56.640625
6318		-52.734375
6319		-56.640625
6320		-50.781250
6321		-56.640625
6322		-50.781250
6323		-56.640625
6324		-48.828125
6325		-54.687500
6326		-48.828125
6327		-52.734375
6328		-48.828125
6329		-52.734375
6330		-46.875000
6331		-50.781250
6332		-46.875000
6333		-48.828125
6334		-46.875000
6335		-48.828125
6336		-44.921875
6337		-48.828125
6338		-42.968750
6339		-46.875000
6340		-42.968750
6341		-46.875000
6342		-41.015625
6343		-44.921875
6344		-39.062500
6345		-44.921875
6346		-39.062500
6347		-42.968750
6348		-39.062500
6349		-41.015625
6350		-37.109375
6351		-41.015625
6352		-35.156250
6353		-39.062500
6354		-33.203125
6355		-37.109375
6356		-31.250000
6357		-37.109375
6358		-29.296875
6359		-35.156250
6360		-29.296875
6361		-33.203125
6362		-27.343750
6363		-31.250000
6364		-27.343750
6365		-29.296875
6366		-25.390625
6367		-27.343750
6368		-23.437500
6369		-27.343750
6370		-21.484375
6371		-25.390625
6372		-19.531250
6373		-23.437500
6374		-17.578125
6375		-21.484375
6376		-15.625000
6377		-19.531250
6378		-15.625000
6379		-17.578125
6380		-11.718750
6381		-17.578125
6382		-11.718750
6383		-13.671875
6384		-9.765625
6385		-11.718750
6386		-7.812500
6387		-11.718750
6388		-5.859375
6389		-9.765625
6390		-3.906250
6391		-7.812500
6392		-1.953125
6393		-5.859375
6394		-1.953125
6395		-3.906250
6396		0.000000
6397		-1.953125
6398		1.953125
6399		0.000000
6400		3.906250
6401		1.953125
6402		5.859375
6403		3.906250
6404		7.812500
6405		5.859375
6406		9.765625
6407		5.859375
6408		13.671875
6409		7.812500
6410		13.671875
6411		11.718750
6412		15.625000
6413		11.718750
6414		17.578125
6415		15.625000
6416		17.578125
6417		15.625000
6418		19.531250
6419		17.578125
6420		21.484375
6421		19.531250
6422		23.437500
6423		21.484375
6424		25.390625
6425		21.484375
6426		27.343750
6427		23.437500
6428		29.296875
6429		25.390625
6430		31.250000
6431		29.296875
6432		31.250000
6433		29.296875
6434		33.203125
6435		31.250000
6436		37.109375
6437		33.203125
6438		37.109375
6439		35.156250
6440		39.062500
6441		35.156250
6442		42.968750
6443		37.109375
6444		42.968750
6445		39.062500
6446		42.968750
6447		41.015625
6448		44.921875
6449		42.968750
6450		44.921875
6451		44.921875
6452		46.875000
6453		44.921875
6454		48.828125
6455		46.875000
6456		50.781250
6457		48.828125
6458		52.734375
6459		48.828125
6460		52.734375
6461		50.781250
6462		54.687500
6463		52.734375
6464		56.640625
6465		52.734375
6466		56.640625
6467		54.687500
6468		58.593750
6469		56.640625
6470		60.546875
6471		56.640625
6472		60.546875
6473		58.593750
6474		62.500000
6475		58.593750
6476		64.453125
6477		60.546875
6478		64.453125
6479		60.546875
6480		64.453125
6481		62.500000
6482		66.406250
6483		64.453125
6484		66.406250
6485		64.453125
6486		68.359375
6487		64.453125
6488		68.359375
6489		66.406250
6490		68.359375
6491		64.453125
6492		72.265625
6493		68.359375
6494		70.312500
6495		68.359375
6496		72.265625
6497		70.312500
6498		72.265625
6499		70.312500
6500		72.265625
6501		70.312500
6502		74.218750
6503		70.312500
6504		74.218750
6505		72.265625
6506		74.218750
6507		72.265625
6508		76.171875
6509		72.265625
6510		76.171875
6511		72.265625
6512		76.171875
6513		72.265625
6514		76.171875
6515		74.218750
6516		76.171875
6517		74.218750
6518		76.171875
6519		74.218750
6520		78.125000
6521		74.218750
6522		78.125000
6523		74.218750
6524		78.125000
6525		74.218750
6526		78.125000
6527		74.218750
6528		78.125000
6529		74.218750
6530		78.125000
6531		74.218750
6532		78.125000
6533		76.171875
6534		78.125000
6535		74.218750
6536		78.125000
6537		74.218750
6538		78.125000
6539		74.218750
6540		78.125000
6541		74.218750
6542		76.171875
6543		74.218750
6544		78.125000
6545		74.218750
6546		76.171875
6547		72.265625
6548		76.171875
6549		72.265625
6550		76.171875
6551		72.265625
6552		74.218750
6553		72.265625
6554		74.218750
6555		70.312500
6556		74.218750
6557		70.312500
6558		74.218750
6559		70.312500
6560		74.218750
6561		70.312500
6562		72.265625
6563		68.359375
6564		72.265625
6565		68.359375
6566		72.265625
6567		68.359375
6568		70.312500
6569		64.453125
6570		70.312500
6571		64.453125
6572		70.312500
6573		64.453125
6574		68.359375
6575		64.453125
6576		68.359375
6577		62.500000
6578		66.406250
6579		62.500000
6580		66.406250
6581		60.546875
6582		64.453125
6583		60.546875
6584		62.500000
6585		58.593750
6586		62.500000
6587		56.640625
6588		60.546875
6589		56.640625
6590		60.546875
6591		54.687500
6592		58.593750
6593		54.687500
6594		56.640625
6595		52.734375
6596		56.640625
6597		50.781250
6598		54.687500
6599		48.828125
6600		52.734375
6601		48.828125
6602		52.734375
6603		46.875000
6604		50.781250
6605		44.921875
6606		48.828125
6607		42.968750
6608		46.875000
6609		42.968750
6610		46.875000
6611		41.015625
6612		44.921875
6613		39.062500
6614		42.968750
6615		37.109375
6616		41.015625
6617		37.109375
6618		39.062500
6619		35.156250
6620		39.062500
6621		33.203125
6622		37.109375
6623		31.250000
6624		35.156250
6625		29.296875
6626		33.203125
6627		27.343750
6628		31.250000
6629		25.390625
6630		29.296875
6631		25.390625
6632		29.296875
6633		23.437500
6634		27.343750
6635		21.484375
6636		25.390625
6637		19.531250
6638		23.437500
6639		17.578125
6640		21.484375
6641		15.625000
6642		19.531250
6643		13.671875
6644		17.578125
6645		11.718750
6646		15.625000
6647		9.765625
6648		13.671875
6649		7.812500
6650		11.718750
6651		5.859375
6652		9.765625
6653		3.906250
6654		7.812500
6655		1.953125
6656		7.812500
6657		0.000000
6658		5.859375
6659		-1.953125
6660		1.953125
6661		-1.953125
6662		1.953125
6663		-3.906250
6664		0.000000
6665		-7.812500
6666		-1.953125
6667		-7.812500
6668		-3.906250
6669		-9.765625
6670		-5.859375
6671		-11.718750
6672		-7.812500
6673		-13.671875
6674		-9.765625
6675		-15.625000
6676		-11.718750
6677		-17.578125
6678		-13.671875
6679		-19.531250
6680		-15.625000
6681		-19.531250
6682		-17.578125
6683		-21.484375
6684		-17.578125
6685		-23.437500
6686		-19.531250
6687		-25.390625
6688		-21.484375
6689		-27.343750
6690		-23.437500
6691		-27.343750
6692		-25.390625
6693		-29.296875
6694		-25.390625
6695		-31.250000
6696		-27.343750
6697		-33.203125
6698		-29.296875
6699		-35.156250
6700		-31.250000
6701		-35.156250
6702		-33.203125
6703		-37.109375
6704		-33.203125
6705		-39.062500
6706		-35.156250
6707		-39.062500
6708		-37.109375
6709		-41.015625
6710		-37.109375
6711		-42.968750
6712		-39.062500
6713		-42.968750
6714		-41.015625
6715		-44.921875
6716		-41.015625
6717		-46.875000
6718		-42.968750
6719		-46.875000
6720		-44.921875
6721		-48.828125
6722		-44.921875
6723		-48.828125
6724		-46.875000
6725		-50.781250
6726		-46.875000
6727		-50.781250
6728		-48.828125
6729		-52.734375
6730		-48.828125
6731		-52.734375
6732		-50.781250
6733		-54.687500
6734		-50.781250
6735		-54.687500
6736		-52.734375
6737		-54.687500
6738		-52.734375
6739		-56.640625
6740		-52.734375
6741		-56.640625
6742		-54.687500
6743		-56.640625
6744		-54.687500
6745		-58.593750
6746		-54.687500
6747		-58.593750
6748		-54.687500
6749		-58.593750
6750		-54.687500
6751		-58.593750
6752		-56.640625
6753		-58.593750
6754		-56.640625
6755		-60.546875
6756		-56.640625
6757		-60.546875
6758		-56.640625
6759		-60.546875
6760		-56.640625
6761		-60.546875
6762		-56.640625
6763		-60.546875
6764		-56.640625
6765		-60.546875
6766		-56.640625
6767		-60.546875
6768		-56.640625
6769		-58.593750
6770		-56.640625
6771		-60.546875
6772		-56.640625
6773		-58.593750
6774		-56.640625
6775		-60.546875
6776		-56.640625
6777		-58.593750
6778		-56.640625
6779		-58.593750
6780		-54.687500
6781		-58.593750
6782		-54.687500
6783		-58.593750
6784		-54.687500
6785		-56.640625
6786		-54.687500
6787		-56.640625
6788		-52.734375
6789		-56.640625
6790		-52.734375
6791		-54.687500
6792		-52.734375
6793		-54.687500
6794		-50.781250
6795		-52.734375
6796		-50.781250
6797		-52.734375
6798		-50.781250
6799		-52.734375
6800		-48.828125
6801		-52.734375
6802		-48.828125
6803		-50.781250
6804		-46.875000
6805		-48.828125
6806		-46.875000
6807		-48.828125
6808		-44.921875
6809		-46.875000
6810		-44.921875
6811		-46.875000
6812		-42.968750
6813		-44.921875
6814		-41.015625
6815		-42.968750
6816		-41.015625
6817		-42.968750
6818		-39.062500
6819		-41.015625
6820		-39.062500
6821		-41.015625
6822		-37.109375
6823		-39.062500
6824		-35.156250
6825		-37.109375
6826		-33.203125
6827		-35.156250
6828		-33.203125
6829		-35.156250
6830		-31.250000
6831		-33.203125
6832		-29.296875
6833		-31.250000
6834		-27.343750
6835		-31.250000
6836		-27.343750
6837		-29.296875
6838		-25.390625
6839		-27.343750
6840		-23.437500
6841		-25.390625
6842		-21.484375
6843		-23.437500
6844		-19.531250
6845		-23.437500
6846		-17.578125
6847		-19.531250
6848		-17.578125
6849		-19.531250
6850		-15.625000
6851		-17.578125
6852		-13.671875
6853		-15.625000
6854		-11.718750
6855		-13.671875
6856		-9.765625
6857		-11.718750
6858		-7.812500
6859		-9.765625
6860		-5.859375
6861		-7.812500
6862		-3.906250
6863		-5.859375
6864		-3.906250
6865		-5.859375
6866		-1.953125
6867		-3.906250
6868		0.000000
6869		-1.953125
6870		1.953125
6871		0.000000
6872		3.906250
6873		1.953125
6874		5.859375
6875		3.906250
6876		7.812500
6877		5.859375
6878		9.765625
6879		7.812500
6880		11.718750
6881		9.765625
6882		13.671875
6883		11.718750
6884		15.625000
6885		11.718750
6886		15.625000
6887		15.625000
6888		19.531250
6889		15.625000
6890		19.531250
6891		17.578125
6892		21.484375
6893		19.531250
6894		23.437500
6895		21.484375
6896		25.390625
6897		23.437500
6898		27.343750
6899		25.390625
6900		29.296875
6901		25.390625
6902		31.250000
6903		29.296875
6904		31.250000
6905		31.250000
6906		33.203125
6907		31.250000
6908		35.156250
6909		33.203125
6910		37.109375
6911		35.156250
6912		39.062500
6913		37.109375
6914		41.015625
6915		37.109375
6916		41.015625
6917		39.062500
6918		42.968750
6919		41.015625
6920		44.921875
6921		42.968750
6922		46.875000
6923		42.968750
6924		46.875000
6925		44.921875
6926		50.781250
6927		46.875000
6928		50.781250
6929		46.875000
6930		50.781250
6931		48.828125
6932		52.734375
6933		50.781250
6934		54.687500
6935		52.734375
6936		56.640625
6937		54.687500
6938		56.640625
6939		54.687500
6940		58.593750
6941		56.640625
6942		60.546875
6943		56.640625
6944		60.546875
6945		58.593750
6946		60.546875
6947		58.593750
6948		62.500000
6949		60.546875
6950		64.453125
6951		60.546875
6952		66.406250
6953		62.500000
6954		66.406250
6955		62.500000
6956		66.406250
6957		64.453125
6958		68.359375
6959		64.453125
6960		68.359375
6961		66.406250
6962		68.359375
6963		66.406250
6964		70.312500
6965		68.359375
6966		70.312500
6967		68.359375
6968		70.312500
6969		68.359375
6970		72.265625
6971		70.312500
6972		72.265625
6973		70.312500
6974		74.218750
6975		70.312500
6976		74.218750
6977		70.312500
6978		74.218750
6979		72.265625
6980		74.218750
6981		72.265625
6982		74.218750
6983		72.265625
6984		76.171875
6985		72.265625
6986		76.171875
6987		74.218750
6988		76.171875
6989		74.218750
6990		76.171875
6991		72.265625
6992		78.125000
6993		74.218750
6994		76.171875
6995		74.218750
6996		76.171875
6997		74.218750
6998		78.125000
6999		74.218750
7000		76.171875
7001		74.218750
7002		78.125000
7003		74.218750
7004		78.125000
7005		74.218750
7006		76.171875
7007		74.218750
7008		78.125000
7009		74.218750
7010		78.125000
7011		74.218750
7012		76.171875
7013		72.265625
7014		76.171875
7015		72.265625
7016		76.171875
7017		74.218750
7018		76.171875
7019		72.265625
7020		76.171875
7021		72.265625
7022		74.218750
7023		70.312500
7024		76.171875
7025		70.312500
7026		74.218750
7027		70.312500
7028		74.218750
7029		70.312500
7030		72.265625
7031		68.359375
7032		72.265625
7033		68.359375
7034		72.265625
7035		66.406250
7036		72.265625
7037		68.359375
7038		70.312500
7039		66.406250
7040		70.312500
7041		66.406250
7042		68.359375
7043		64.453125
7044		68.359375
7045		62.500000
7046		66.406250
7047		62.500000
7048		66.406250
7049		62.500000
7050		66.406250
7051		60.546875
7052		64.453125
7053		60.546875
7054		64.453125
7055		58.593750
7056		62.500000
7057		56.640625
7058		60.546875
7059		56.640625
7060		60.546875
7061		54.687500
7062		58.593750
7063		54.687500
7064		56.640625
7065		52.734375
7066		56.640625
7067		50.781250
7068		54.687500
7069		50.781250
7070		54.687500
7071		48.828125
7072		52.734375
7073		46.875000
7074		50.781250
7075		44.921875
7076		50.781250
7077		44.921875
7078		48.828125
7079		42.968750
7080		46.875000
7081		41.015625
7082		44.921875
7083		39.062500
7084		44.921875
7085		37.109375
7086		41.015625
7087		37.109375
7088		41.015625
7089		35.156250
7090		39.062500
7091		33.203125
7092		37.109375
7093		31.250000
7094		35.156250
7095		29.296875
7096		33.203125
7097		27.343750
7098		33.203125
7099		27.343750
7100		31.250000
7101		25.390625
7102		29.296875
7103		23.437500
7104		27.343750
7105		21.484375
7106		25.390625
7107		19.531250
7108		23.437500
7109		17.578125
7110		23.437500
7111		15.625000
7112		19.531250
7113		13.671875
7114		17.578125
7115		11.718750
7116		15.625000
7117		9.765625
7118		15.625000
7119		7.812500
7120		13.671875
7121		7.812500
7122		11.718750
7123		5.859375
7124		9.765625
7125		3.906250
7126		7.812500
7127		1.953125
7128		5.859375
7129		0.000000
7130		3.906250
7131		-1.953125
7132		1.953125
7133		-3.906250
7134		0.000000
7135		-5.859375
7136		-1.953125
7137		-7.812500
7138		-3.906250
7139		-9.765625
7140		-5.859375
7141		-11.718750
7142		-7.812500
7143		-11.718750
7144		-7.812500
7145		-13.671875
7146		-9.765625
7147		-15.625000
7148		-11.718750
7149		-17.578125
7150		-13.671875
7151		-19.531250
7152		-15.625000
7153		-23.437500
7154		-17.578125
7155		-23.437500
7156		-19.531250
7157		-23.437500
7158		-21.484375
7159		-25.390625
7160		-21.484375
7161		-27.343750
7162		-23.437500
7163		-29.296875
7164		-25.390625
7165		-31.250000
7166		-27.343750
7167		-33.203125
7168		-29.296875
7169		-33.203125
7170		-31.250000
7171		-35.156250
7172		-31.250000
7173		-37.109375
7174		-33.203125
7175		-39.062500
7176		-35.156250
7177		-39.062500
7178		-35.156250
7179		-41.015625
7180		-37.109375
7181		-42.968750
7182		-39.062500
7183		-42.968750
7184		-39.062500
7185		-44.921875
7186		-41.015625
7187		-44.921875
7188		-42.968750
7189		-46.875000
7190		-44.921875
7191		-48.828125
7192		-44.921875
7193		-48.828125
7194		-44.921875
7195		-50.781250
7196		-46.875000
7197		-50.781250
7198		-46.875000
7199		-52.734375
7200		-48.828125
7201		-52.734375
7202		-48.828125
7203		-52.734375
7204		-50.781250
7205		-54.687500
7206		-50.781250
7207		-54.687500
7208		-52.734375
7209		-56.640625
7210		-52.734375
7211		-56.640625
7212		-52.734375
7213		-58.593750
7214		-54.687500
7215		-58.593750
7216		-54.687500
7217		-58.593750
7218		-54.687500
7219		-58.593750
7220		-56.640625
7221		-60.546875
7222		-56.640625
7223		-58.593750
7224		-56.640625
7225		-60.546875
7226		-56.640625
7227		-60.546875
7228		-56.640625
7229		-60.546875
7230		-56.640625
7231		-60.546875
7232		-56.640625
7233		-60.546875
7234		-56.640625
7235		-60.546875
7236		-56.640625
7237		-62.500000
7238		-56.640625
7239		-60.546875
7240		-56.640625
7241		-60.546875
7242		-56.640625
7243		-60.546875
7244		-56.640625
7245		-60.546875
7246		-56.640625
7247		-58.593750
7248		-56.640625
7249		-58.593750
7250		-56.640625
7251		-58.593750
7252		-54.687500
7253		-58.593750
7254		-54.687500
7255		-58.593750
7256		-54.687500
7257		-56.640625
7258		-54.687500
7259		-58.593750
7260		-52.734375
7261		-56.640625
7262		-52.734375
7263		-56.640625
7264		-52.734375
7265		-54.687500
7266		-52.734375
7267		-54.687500
7268		-50.781250
7269		-52.734375
7270		-48.828125
7271		-52.734375
7272		-48.828125
7273		-50.781250
7274		-48.828125
7275		-50.781250
7276		-46.875000
7277		-50.781250
7278		-46.875000
7279		-48.828125
7280		-44.921875
7281		-46.875000
7282		-44.921875
7283		-46.875000
7284		-42.968750
7285		-44.921875
7286		-41.015625
7287		-42.968750
7288		-41.015625
7289		-42.968750
7290		-39.062500
7291		-41.015625
7292		-39.062500
7293		-39.062500
7294		-37.109375
7295		-39.062500
7296		-35.156250
7297		-37.109375
7298		-33.203125
7299		-35.156250
7300		-33.203125
7301		-35.156250
7302		-31.250000
7303		-33.203125
7304		-29.296875
7305		-33.203125
7306		-27.343750
7307		-29.296875
7308		-27.343750
7309		-29.296875
7310		-25.390625
7311		-27.343750
7312		-23.437500
7313		-25.390625
7314		-21.484375
7315		-23.437500
7316		-19.531250
7317		-21.484375
7318		-17.578125
7319		-19.531250
7320		-17.578125
7321		-19.531250
7322		-15.625000
7323		-17.578125
7324		-13.671875
7325		-15.625000
7326		-11.718750
7327		-13.671875
7328		-9.765625
7329		-11.718750
7330		-7.812500
7331		-9.765625
7332		-5.859375
7333		-7.812500
7334		-3.906250
7335		-5.859375
7336		-1.953125
7337		-3.906250
7338		0.000000
7339		-3.906250
7340		0.000000
7341		-1.953125
7342		1.953125
7343		0.000000
7344		3.906250
7345		1.953125
7346		5.859375
7347		3.906250
7348		7.812500
7349		5.859375
7350		9.765625
7351		7.812500
7352		11.718750
7353		9.765625
7354		13.671875
7355		11.718750
7356		15.625000
7357		13.671875
7358		17.578125
7359		13.671875
7360		17.578125
7361		15.625000
7362		19.531250
7363		17.578125
7364		21.484375
7365		19.531250
7366		23.437500
7367		21.484375
7368		25.390625
7369		23.437500
7370		29.296875
7371		25.390625
7372		29.296875
7373		27.343750
7374		31.250000
7375		29.296875
7376		33.203125
7377		31.250000
7378		33.203125
7379		31.250000
7380		35.156250
7381		33.203125
7382		37.109375
7383		35.156250
7384		39.062500
7385		37.109375
7386		41.015625
7387		39.062500
7388		42.968750
7389		39.062500
7390		42.968750
7391		41.015625
7392		44.921875
7393		42.968750
7394		46.875000
7395		42.968750
7396		48.828125
7397		44.921875
7398		48.828125
7399		46.875000
7400		50.781250
7401		48.828125
7402		52.734375
7403		50.781250
7404		52.734375
7405		50.781250
7406		54.687500
7407		52.734375
7408		54.687500
7409		54.687500
7410		56.640625
7411		54.687500
7412		58.593750
7413		56.640625
7414		58.593750
7415		56.640625
7416		60.546875
7417		58.593750
7418		60.546875
7419		58.593750
7420		62.500000
7421		60.546875
7422		64.453125
7423		60.546875
7424		64.453125
7425		62.500000
7426		66.406250
7427		62.500000
7428		66.406250
7429		64.453125
7430		68.359375
7431		64.453125
7432		68.359375
7433		66.406250
7434		68.359375
7435		66.406250
7436		70.312500
7437		68.359375
7438		72.265625
7439		68.359375
7440		72.265625
7441		70.312500
7442		72.265625
7443		70.312500
7444		72.265625
7445		70.312500
7446		74.218750
7447		70.312500
7448		74.218750
7449		72.265625
7450		74.218750
7451		72.265625
7452		76.171875
7453		72.265625
7454		76.171875
7455		72.265625
7456		76.171875
7457		72.265625
7458		76.171875
7459		74.218750
7460		76.171875
7461		72.265625
7462		76.171875
7463		74.218750
7464		78.125000
7465		74.218750
7466		76.171875
7467		74.218750
7468		78.125000
7469		74.218750
7470		76.171875
7471		74.218750
7472		78.125000
7473		74.218750
7474		78.125000
7475		74.218750
7476		76.171875
7477		74.218750
7478		78.125000
7479		74.218750
7480		78.125000
7481		74.218750
7482		76.171875
7483		74.218750
7484		76.171875
7485		74.218750
7486		76.171875
7487		74.218750
7488		76.171875
7489		72.265625
7490		76.171875
7491		72.265625
7492		76.171875
7493		72.265625
7494		74.218750
7495		72.265625
7496		76.171875
7497		70.312500
7498		74.218750
7499		70.312500
7500		74.218750
7501		70.312500
7502		74.218750
7503		68.359375
7504		72.265625
7505		68.359375
7506		72.265625
7507		68.359375
7508		72.265625
7509		68.359375
7510		70.312500
7511		66.406250
7512		70.312500
7513		66.406250
7514		68.359375
7515		64.453125
7516		68.359375
7517		64.453125
7518		66.406250
7519		62.500000
7520		66.406250
7521		62.500000
7522		66.406250
7523		60.546875
7524		64.453125
7525		60.546875
7526		62.500000
7527		58.593750
7528		62.500000
7529		56.640625
7530		62.500000
7531		56.640625
7532		60.546875
7533		54.687500
7534		58.593750
7535		52.734375
7536		56.640625
7537		52.734375
7538		56.640625
7539		50.781250
7540		54.687500
7541		50.781250
7542		54.687500
7543		48.828125
7544		50.781250
7545		46.875000
7546		50.781250
7547		44.921875
7548		48.828125
7549		44.921875
7550		46.875000
7551		42.968750
7552		46.875000
7553		41.015625
7554		44.921875
7555		39.062500
7556		42.968750
7557		39.062500
7558		42.968750
7559		37.109375
7560		39.062500
7561		33.203125
7562		39.062500
7563		33.203125
7564		37.109375
7565		31.250000
7566		35.156250
7567		29.296875
7568		33.203125
7569		29.296875
7570		31.250000
7571		27.343750
7572		29.296875
7573		23.437500
7574		29.296875
7575		23.437500
7576		27.343750
7577		21.484375
7578		25.390625
7579		19.531250
7580		23.437500
7581		17.578125
7582		21.484375
7583		15.625000
7584		19.531250
7585		13.671875
7586		17.578125
7587		11.718750
7588		15.625000
7589		11.718750
7590		13.671875
7591		7.812500
7592		13.671875
7593		7.812500
7594		9.765625
7595		3.906250
7596		7.812500
7597		1.953125
7598		7.812500
7599		0.000000
7600		5.859375
7601		0.000000
7602		3.906250
7603		-1.953125
7604		1.953125
7605		-3.906250
7606		0.000000
7607		-5.859375
7608		-1.953125
7609		-7.812500
7610		-3.906250
7611		-9.765625
7612		-5.859375
7613		-11.718750
7614		-5.859375
7615		-13.671875
7616		-9.765625
7617		-13.671875
7618		-11.718750
7619		-17.578125
7620		-13.671875
7621		-17.578125
7622		-13.671875
7623		-19.531250
7624		-15.625000
7625		-21.484375
7626		-17.578125
7627		-23.437500
7628		-19.531250
7629		-25.390625
7630		-21.484375
7631		-27.343750
7632		-21.484375
7633		-27.343750
7634		-25.390625
7635		-29.296875
7636		-25.390625
7637		-31.250000
7638		-27.343750
7639		-33.203125
7640		-29.296875
7641		-35.156250
7642		-31.250000
7643		-35.156250
7644		-33.203125
7645		-37.109375
7646		-33.203125
7647		-39.062500
7648		-35.156250
7649		-41.015625
7650		-37.109375
7651		-41.015625
7652		-39.062500
7653		-42.968750
7654		-39.062500
7655		-44.921875
7656		-41.015625
7657		-46.875000
7658		-41.015625
7659		-46.875000
7660		-42.968750
7661		-46.875000
7662		-44.921875
7663		-48.828125
7664		-44.921875
7665		-48.828125
7666		-46.875000
7667		-50.781250
7668		-46.875000
7669		-50.781250
7670		-48.828125
7671		-52.734375
7672		-48.828125
7673		-52.734375
7674		-50.781250
7675		-54.687500
7676		-50.781250
7677		-54.687500
7678		-52.734375
7679		-56.640625
7680		-52.734375
7681		-56.640625
7682		-52.734375
7683		-56.640625
7684		-54.687500
7685		-56.640625
7686		-54.687500
7687		-58.593750
7688		-54.687500
7689		-58.593750
7690		-56.640625
7691		-58.593750
7692		-56.640625
7693		-58.593750
7694		-56.640625
7695		-58.593750
7696		-56.640625
7697		-60.546875
7698		-56.640625
7699		-60.546875
7700		-56.640625
7701		-60.546875
7702		-58.593750
7703		-60.546875
7704		-58.593750
7705		-60.546875
7706		-56.640625
7707		-60.546875
7708		-58.593750
7709		-60.546875
7710		-58.593750
7711		-60.546875
7712		-58.593750
7713		-60.546875
7714		-56.640625
7715		-60.546875
7716		-56.640625
7717		-60.546875
7718		-56.640625
7719		-60.546875
7720		-56.640625
7721		-58.593750
7722		-56.640625
7723		-58.593750
7724		-54.687500
7725		-60.546875
7726		-54.687500
7727		-58.593750
7728		-54.687500
7729		-56.640625
7730		-54.687500
7731		-56.640625
7732		-52.734375
7733		-56.640625
7734		-52.734375
7735		-56.640625
7736		-52.734375
7737		-54.687500
7738		-50.781250
7739		-54.687500
7740		-50.781250
7741		-52.734375
7742		-50.781250
7743		-52.734375
7744		-48.828125
7745		-50.781250
7746		-48.828125
7747		-50.781250
7748		-46.875000
7749		-48.828125
7750		-46.875000
7751		-48.828125
7752		-44.921875
7753		-46.875000
7754		-44.921875
7755		-46.875000
7756		-42.968750
7757		-46.875000
7758		-41.015625
7759		-44.921875
7760		-41.015625
7761		-42.968750
7762		-39.062500
7763		-42.968750
7764		-37.109375
7765		-41.015625
7766		-37.109375
7767		-39.062500
7768		-35.156250
7769		-37.109375
7770		-35.156250
7771		-37.109375
7772		-31.250000
7773		-35.156250
7774		-31.250000
7775		-33.203125
7776		-29.296875
7777		-31.250000
7778		-29.296875
7779		-29.296875
7780		-27.343750
7781		-29.296875
7782		-23.437500
7783		-27.343750
7784		-23.437500
7785		-25.390625
7786		-21.484375
7787		-23.437500
7788		-19.531250
7789		-21.484375
7790		-17.578125
7791		-19.531250
7792		-15.625000
7793		-19.531250
7794		-15.625000
7795		-17.578125
7796		-13.671875
7797		-15.625000
7798		-11.718750
7799		-13.671875
7800		-9.765625
7801		-11.718750
7802		-7.812500
7803		-9.765625
7804		-5.859375
7805		-7.812500
7806		-3.906250
7807		-5.859375
7808		-1.953125
7809		-5.859375
7810		0.000000
7811		-1.953125
7812		0.000000
7813		0.000000
7814		3.906250
7815		0.000000
7816		3.906250
7817		1.953125
7818		5.859375
7819		3.906250
7820		7.812500
7821		5.859375
7822		9.765625
7823		7.812500
7824		11.718750
7825		9.765625
7826		13.671875
7827		11.718750
7828		15.625000
7829		13.671875
7830		17.578125
7831		13.671875
7832		19.531250
7833		15.625000
7834		19.531250
7835		17.578125
7836		23.437500
7837		19.531250
7838		23.437500
7839		21.484375
7840		27.343750
7841		23.437500
7842		27.343750
7843		25.390625
7844		29.296875
7845		27.343750
7846		31.250000
7847		29.296875
7848		33.203125
7849		29.296875
7850		33.203125
7851		31.250000
7852		35.156250
7853		33.203125
7854		37.109375
7855		35.156250
7856		39.062500
7857		37.109375
7858		41.015625
7859		37.109375
7860		42.968750
7861		39.062500
7862		42.968750
7863		41.015625
7864		44.921875
7865		42.968750
7866		46.875000
7867		42.968750
7868		46.875000
7869		44.921875
7870		48.828125
7871		46.875000
7872		50.781250
7873		48.828125
7874		50.781250
7875		48.828125
7876		52.734375
7877		50.781250
7878		54.687500
7879		52.734375
7880		54.687500
7881		52.734375
7882		56.640625
7883		54.687500
7884		58.593750
7885		56.640625
7886		58.593750
7887		56.640625
7888		60.546875
7889		58.593750
7890		62.500000
7891		58.593750
7892		62.500000
7893		60.546875
7894		64.453125
7895		62.500000
7896		64.453125
7897		62.500000
7898		66.406250
7899		62.500000
7900		66.406250
7901		64.453125
7902		68.359375
7903		64.453125
7904		68.359375
7905		66.406250
7906		68.359375
7907		66.406250
7908		70.312500
7909		66.406250
7910		70.312500
7911		68.359375
7912		70.312500
7913		68.359375
7914		72.265625
7915		68.359375
7916		72.265625
7917		68.359375
7918		72.265625
7919		70.312500
7920		74.218750
7921		70.312500
7922		74.218750
7923		72.265625
7924		74.218750
7925		72.265625
7926		76.171875
7927		72.265625
7928		76.171875
7929		72.265625
7930		76.171875
7931		72.265625
7932		76.171875
7933		72.265625
7934		76.171875
7935		74.218750
7936		76.171875
7937		74.218750
7938		76.171875
7939		74.218750
7940		76.171875
7941		74.218750
7942		78.125000
7943		72.265625
7944		78.125000
7945		74.218750
7946		76.171875
7947		74.218750
7948		76.171875
7949		72.265625
7950		78.125000
7951		74.218750
7952		76.171875
7953		74.218750
7954		76.171875
7955		72.265625
7956		76.171875
7957		72.265625
7958		76.171875
7959		72.265625
7960		76.171875
7961		72.265625
7962		76.171875
7963		72.265625
7964		74.218750
7965		70.312500
7966		74.218750
7967		70.312500
7968		74.218750
7969		70.312500
7970		74.218750
7971		70.312500
7972		72.265625
7973		70.312500
7974		72.265625
7975		68.359375
7976		72.265625
7977		68.359375
7978		70.312500
7979		66.406250
7980		70.312500
7981		66.406250
7982		68.359375
7983		66.406250
7984		70.312500
7985		64.453125
7986		68.359375
7987		64.453125
7988		68.359375
7989		62.500000
7990		66.406250
7991		62.500000
7992		64.453125
7993		60.546875
7994		64.453125
7995		60.546875
7996		62.500000
7997		58.593750
7998		62.500000
7999		58.593750
8000		62.500000
8001		56.640625
8002		60.546875
8003		56.640625
8004		58.593750
8005		54.687500
8006		56.640625
8007		52.734375
8008		56.640625
8009		52.734375
8010		54.687500
8011		50.781250
8012		54.687500
8013		48.828125
8014		52.734375
8015		46.875000
8016		50.781250
8017		46.875000
8018		50.781250
8019		44.921875
8020		48.828125
8021		42.968750
8022		46.875000
8023		41.015625
8024		46.875000
8025		39.062500
8026		44.921875
8027		39.062500
8028		42.968750
8029		37.109375
8030		41.015625
8031		35.156250
8032		39.062500
8033		33.203125
8034		37.109375
8035		31.250000
8036		37.109375
8037		31.250000
8038		35.156250
8039		29.296875
8040		33.203125
8041		27.343750
8042		31.250000
8043		25.390625
8044		29.296875
8045		23.437500
8046		27.343750
8047		21.484375
8048		25.390625
8049		19.531250
8050		23.437500
8051		17.578125
8052		21.484375
8053		15.625000
8054		21.484375
8055		15.625000
8056		19.531250
8057		11.718750
8058		17.578125
8059		11.718750
8060		15.625000
8061		9.765625
8062		13.671875
8063		7.812500
8064		11.718750
8065		5.859375
8066		9.765625
8067		3.906250
8068		7.812500
8069		1.953125
8070		5.859375
8071		0.000000
8072		3.906250
8073		-1.953125
8074		1.953125
8075		-3.906250
8076		0.000000
8077		-5.859375
8078		-1.953125
8079		-7.812500
8080		-1.953125
8081		-7.812500
8082		-5.859375
8083		-11.718750
8084		-7.812500
8085		-13.671875
8086		-7.812500
8087		-13.671875
8088		-9.765625
8089		-15.625000
8090		-11.718750
8091		-17.578125
8092		-13.671875
8093		-19.531250
8094		-15.625000
8095		-21.484375
8096		-17.578125
8097		-23.437500
8098		-19.531250
8099		-25.390625
8100		-21.484375
8101		-27.343750
8102		-21.484375
8103		-27.343750
8104		-23.437500
8105		-29.296875
8106		-25.390625
8107		-31.250000
8108		-27.343750
8109		-33.203125
8110		-27.343750
8111		-35.156250
8112		-29.296875
8113		-35.156250
8114		-33.203125
8115		-37.109375
8116		-33.203125
8117		-39.062500
8118		-33.203125
8119		-41.015625
8120		-37.109375
8121		-41.015625
8122		-37.109375
8123		-42.968750
8124		-39.062500
8125		-44.921875
8126		-39.062500
8127		-44.921875
8128		-41.015625
8129		-46.875000
8130		-41.015625
8131		-46.875000
8132		-44.921875
8133		-48.828125
8134		-44.921875
8135		-48.828125
8136		-46.875000
8137		-50.781250
8138		-46.875000
8139		-50.781250
8140		-48.828125
8141		-52.734375
8142		-48.828125
8143		-52.734375
8144		-50.781250
8145		-54.687500
8146		-50.781250
8147		-54.687500
8148		-52.734375
8149		-54.687500
8150		-52.734375
8151		-56.640625
8152		-52.734375
8153		-56.640625
8154		-54.687500
8155		-56.640625
8156		-54.687500
8157		-58.593750
8158		-54.687500
8159		-58.593750
8160		-54.687500
8161		-60.546875
8162		-56.640625
8163		-58.593750
8164		-54.687500
8165		-58.593750
8166		-56.640625
8167		-60.546875
8168		-56.640625
8169		-60.546875
8170		-56.640625
8171		-60.546875
8172		-58.593750
8173		-60.546875
8174		-58.593750
8175		-60.546875
8176		-58.593750
8177		-60.546875
8178		-58.593750
8179		-62.500000
8180		-56.640625
8181		-60.546875
8182		-58.593750
8183		-60.546875
8184		-56.640625
8185		-60.546875
8186		-58.593750
8187		-60.546875
8188		-56.640625
8189		-60.546875
8190		-56.640625
8191		-60.546875
8192		-56.640625
8193		-60.546875
8194		-56.640625
8195		-60.546875
8196		-56.640625
8197		-58.593750
8198		-56.640625
8199		-58.593750
8200		-54.687500
8201		-58.593750
8202		-54.687500
8203		-56.640625
8204		-54.687500
8205		-56.640625
8206		-52.734375
8207		-56.640625
8208		-52.734375
8209		-54.687500
8210		-50.781250
8211		-54.687500
8212		-50.781250
8213		-54.687500
8214		-48.828125
8215		-52.734375
8216		-48.828125
8217		-50.781250
8218		-46.875000
8219		-50.781250
8220		-46.875000
8221		-48.828125
8222		-44.921875
8223		-48.828125
8224		-44.921875
8225		-48.828125
8226		-42.968750
8227		-46.875000
8228		-42.968750
8229		-44.921875
8230		-41.015625
8231		-42.968750
8232		-41.015625
8233		-42.968750
8234		-39.062500
8235		-42.968750
8236		-37.109375
8237		-39.062500
8238		-37.109375
8239		-39.062500
8240		-35.156250
8241		-37.109375
8242		-33.203125
8243		-35.156250
8244		-31.250000
8245		-33.203125
8246		-29.296875
8247		-33.203125
8248		-29.296875
8249		-31.250000
8250		-27.343750
8251		-29.296875
8252		-25.390625
8253		-27.343750
8254		-23.437500
8255		-25.390625
8256		-23.437500
8257		-25.390625
8258		-21.484375
8259		-23.437500
8260		-19.531250
8261		-21.484375
8262		-17.578125
8263		-19.531250
8264		-15.625000
8265		-17.578125
8266		-13.671875
8267		-15.625000
8268		-11.718750
8269		-13.671875
8270		-9.765625
8271		-11.718750
8272		-9.765625
8273		-11.718750
8274		-7.812500
8275		-9.765625
8276		-5.859375
8277		-7.812500
8278		-3.906250
8279		-5.859375
8280		-1.953125
8281		-3.906250
8282		0.000000
8283		-1.953125
8284		1.953125
8285		0.000000
8286		3.906250
8287		1.953125
8288		7.812500
8289		3.906250
8290		7.812500
8291		3.906250
8292		7.812500
8293		5.859375
8294		11.718750
8295		7.812500
8296		11.718750
8297		9.765625
8298		13.671875
8299		11.718750
8300		15.625000
8301		13.671875
8302		17.578125
8303		15.625000
8304		21.484375
8305		17.578125
8306		21.484375
8307		17.578125
8308		23.437500
8309		19.531250
8310		25.390625
8311		23.437500
8312		27.343750
8313		23.437500
8314		29.296875
8315		25.390625
8316		29.296875
8317		27.343750
8318		31.250000
8319		27.343750
8320		35.156250
8321		29.296875
8322		35.156250
8323		31.250000
8324		39.062500
8325		33.203125
8326		39.062500
8327		35.156250
8328		41.015625
8329		35.156250
8330		41.015625
8331		37.109375
8332		41.015625
8333		41.015625
8334		42.968750
8335		41.015625
8336		46.875000
8337		41.015625
8338		48.828125
8339		42.968750
8340		48.828125
8341		44.921875
8342		50.781250
8343		44.921875
8344		52.734375
8345		46.875000
8346		52.734375
8347		48.828125
8348		52.734375
8349		50.781250
8350		54.687500
8351		52.734375
8352		56.640625
8353		50.781250
8354		58.593750
8355		52.734375
8356		60.546875
8357		54.687500
8358		60.546875
8359		54.687500
8360		62.500000
8361		56.640625
8362		64.453125
8363		58.593750
8364		64.453125
8365		60.546875
8366		62.500000
8367		62.500000
8368		64.453125
8369		60.546875
8370		68.359375
8371		62.500000
8372		68.359375
8373		62.500000
8374		68.359375
8375		62.500000
8376		70.312500
8377		64.453125
8378		70.312500
8379		64.453125
8380		70.312500
8381		66.406250
8382		72.265625
8383		68.359375
8384		70.312500
8385		68.359375
8386		74.218750
8387		68.359375
8388		74.218750
8389		68.359375
8390		74.218750
8391		68.359375
8392		76.171875
8393		68.359375
8394		76.171875
8395		70.312500
8396		76.171875
8397		70.312500
8398		76.171875
8399		72.265625
8400		74.218750
8401		72.265625
8402		76.171875
8403		70.312500
8404		78.125000
8405		72.265625
8406		78.125000
8407		72.265625
8408		78.125000
8409		72.265625
8410		78.125000
8411		72.265625
8412		78.125000
8413		72.265625
8414		78.125000
8415		74.218750
8416		76.171875
8417		74.218750
8418		76.171875
8419		72.265625
8420		76.171875
8421		72.265625
8422		78.125000
8423		72.265625
8424		78.125000
8425		72.265625
8426		78.125000
8427		70.312500
8428		78.125000
8429		70.312500
8430		78.125000
8431		70.312500
8432		78.125000
8433		72.265625
8434		74.218750
8435		72.265625
8436		74.218750
8437		70.312500
8438		76.171875
8439		68.359375
8440		76.171875
8441		68.359375
8442		74.218750
8443		66.406250
8444		74.218750
8445		66.406250
8446		74.218750
8447		66.406250
8448		74.218750
8449		68.359375
8450		70.312500
8451		66.406250
8452		70.312500
8453		64.453125
8454		70.312500
8455		62.500000
8456		70.312500
8457		62.500000
8458		70.312500
8459		62.500000
8460		68.359375
8461		60.546875
8462		68.359375
8463		60.546875
8464		66.406250
8465		60.546875
8466		66.406250
8467		60.546875
8468		62.500000
8469		56.640625
8470		62.500000
8471		56.640625
8472		62.500000
8473		54.687500
8474		62.500000
8475		52.734375
8476		60.546875
8477		52.734375
8478		58.593750
8479		50.781250
8480		58.593750
8481		50.781250
8482		56.640625
8483		50.781250
8484		52.734375
8485		48.828125
8486		52.734375
8487		44.921875
8488		52.734375
8489		44.921875
8490		50.781250
8491		42.968750
8492		48.828125
8493		41.015625
8494		48.828125
8495		39.062500
8496		46.875000
8497		39.062500
8498		44.921875
8499		39.062500
8500		42.968750
8501		37.109375
8502		39.062500
8503		33.203125
8504		39.062500
8505		31.250000
8506		39.062500
8507		29.296875
8508		37.109375
8509		29.296875
8510		35.156250
8511		27.343750
8512		33.203125
8513		25.390625
8514		31.250000
8515		23.437500
8516		31.250000
8517		23.437500
8518		27.343750
8519		21.484375
8520		25.390625
8521		17.578125
8522		25.390625
8523		15.625000
8524		23.437500
8525		13.671875
8526		21.484375
8527		11.718750
8528		19.531250
8529		9.765625
8530		17.578125
8531		9.765625
8532		15.625000
8533		7.812500
8534		11.718750
8535		7.812500
8536		9.765625
8537		3.906250
8538		9.765625
8539		1.953125
8540		7.812500
8541		0.000000
8542		7.812500
8543		-1.953125
8544		5.859375
8545		-3.906250
8546		3.906250
8547		-5.859375
8548		1.953125
8549		-5.859375
8550		0.000000
8551		-7.812500
8552		-3.906250
8553		-11.718750
8554		-5.859375
8555		-13.671875
8556		-5.859375
8557		-13.671875
8558		-7.812500
8559		-17.578125
8560		-9.765625
8561		-19.531250
8562		-9.765625
8563		-19.531250
8564		-13.671875
8565		-21.484375
8566		-13.671875
8567		-21.484375
8568		-17.578125
8569		-23.437500
8570		-19.531250
8571		-27.343750
8572		-19.531250
8573		-27.343750
8574		-21.484375
8575		-29.296875
8576		-21.484375
8577		-31.250000
8578		-25.390625
8579		-33.203125
8580		-25.390625
8581		-35.156250
8582		-27.343750
8583		-35.156250
8584		-31.250000
8585		-35.156250
8586		-31.250000
8587		-39.062500
8588		-33.203125
8589		-41.015625
8590		-33.203125
8591		-41.015625
8592		-35.156250
8593		-42.968750
8594		-37.109375
8595		-44.921875
8596		-37.109375
8597		-46.875000
8598		-39.062500
8599		-46.875000
8600		-41.015625
8601		-46.875000
8602		-42.968750
8603		-46.875000
8604		-44.921875
8605		-50.781250
8606		-42.968750
8607		-50.781250
8608		-44.921875
8609		-52.734375
8610		-44.921875
8611		-54.687500
8612		-46.875000
8613		-54.687500
8614		-46.875000
8615		-54.687500
8616		-48.828125
8617		-54.687500
8618		-50.781250
8619		-54.687500
8620		-50.781250
8621		-58.593750
8622		-50.781250
8623		-58.593750
8624		-50.781250
8625		-58.593750
8626		-52.734375
8627		-60.546875
8628		-52.734375
8629		-60.546875
8630		-52.734375
8631		-60.546875
8632		-54.687500
8633		-60.546875
8634		-54.687500
8635		-58.593750
8636		-56.640625
8637		-60.546875
8638		-54.687500
8639		-62.500000
8640		-54.687500
8641		-62.500000
8642		-54.687500
8643		-62.500000
8644		-56.640625
8645		-62.500000
8646		-56.640625
8647		-62.500000
8648		-56.640625
8649		-62.500000
8650		-56.640625
8651		-60.546875
8652		-58.593750
8653		-60.546875
8654		-58.593750
8655		-62.500000
8656		-56.640625
8657		-62.500000
8658		-56.640625
8659		-62.500000
8660		-56.640625
8661		-62.500000
8662		-54.687500
8663		-62.500000
8664		-54.687500
8665		-60.546875
8666		-54.687500
8667		-60.546875
8668		-56.640625
8669		-58.593750
8670		-56.640625
8671		-60.546875
8672		-52.734375
8673		-58.593750
8674		-52.734375
8675		-58.593750
8676		-52.734375
8677		-58.593750
8678		-50.781250
8679		-58.593750
8680		-50.781250
8681		-56.640625
8682		-48.828125
8683		-54.687500
8684		-48.828125
8685		-52.734375
8686		-50.781250
8687		-52.734375
8688		-48.828125
8689		-52.734375
8690		-46.875000
8691		-52.734375
8692		-44.921875
8693		-50.781250
8694		-44.921875
8695		-50.781250
8696		-42.968750
8697		-48.828125
8698		-41.015625
8699		-48.828125
8700		-41.015625
8701		-46.875000
8702		-41.015625
8703		-42.968750
8704		-39.062500
8705		-42.968750
8706		-37.109375
8707		-41.015625
8708		-35.156250
8709		-41.015625
8710		-35.156250
8711		-41.015625
8712		-33.203125
8713		-39.062500
8714		-31.250000
8715		-37.109375
8716		-29.296875
8717		-37.109375
8718		-29.296875
8719		-31.250000
8720		-29.296875
8721		-31.250000
8722		-25.390625
8723		-31.250000
8724		-23.437500
8725		-29.296875
8726		-21.484375
8727		-27.343750
8728		-19.531250
8729		-25.390625
8730		-19.531250
8731		-23.437500
8732		-15.625000
8733		-23.437500
8734		-15.625000
8735		-19.531250
8736		-15.625000
8737		-17.578125
8738		-13.671875
8739		-17.578125
8740		-11.718750
8741		-15.625000
8742		-9.765625
8743		-13.671875
8744		-7.812500
8745		-13.671875
8746		-5.859375
8747		-9.765625
8748		-3.906250
8749		-7.812500
8750		-1.953125
8751		-7.812500
8752		-1.953125
8753		-3.906250
8754		0.000000
8755		-1.953125
8756		3.906250
8757		-1.953125
8758		5.859375
8759		0.000000
8760		7.812500
8761		1.953125
8762		9.765625
8763		3.906250
8764		9.765625
8765		5.859375
8766		11.718750
8767		7.812500
8768		13.671875
8769		9.765625
8770		13.671875
8771		13.671875
8772		15.625000
8773		13.671875
8774		19.531250
8775		15.625000
8776		21.484375
8777		15.625000
8778		23.437500
8779		17.578125
8780		25.390625
8781		19.531250
8782		27.343750
8783		19.531250
8784		29.296875
8785		23.437500
8786		27.343750
8787		27.343750
8788		29.296875
8789		27.343750
8790		33.203125
8791		27.343750
8792		35.156250
8793		29.296875
8794		37.109375
8795		31.250000
8796		37.109375
8797		33.203125
8798		39.062500
8799		33.203125
8800		41.015625
8801		35.156250
8802		42.968750
8803		39.062500
8804		42.968750
8805		39.062500
8806		44.921875
8807		39.062500
8808		46.875000
8809		41.015625
8810		48.828125
8811		42.968750
8812		50.781250
8813		44.921875
8814		50.781250
8815		44.921875
8816		52.734375
8817		46.875000
8818		54.687500
8819		50.781250
8820		52.734375
8821		52.734375
8822		54.687500
8823		50.781250
8824		58.593750
8825		52.734375
8826		58.593750
8827		52.734375
8828		60.546875
8829		54.687500
8830		60.546875
8831		56.640625
8832		62.500000
8833		56.640625
8834		62.500000
8835		58.593750
8836		64.453125
8837		60.546875
8838		64.453125
8839		60.546875
8840		66.406250
8841		62.500000
8842		66.406250
8843		62.500000
8844		68.359375
8845		64.453125
8846		68.359375
8847		64.453125
8848		70.312500
8849		64.453125
8850		70.312500
8851		66.406250
8852		70.312500
8853		68.359375
8854		70.312500
8855		68.359375
8856		70.312500
8857		68.359375
8858		74.218750
8859		68.359375
8860		74.218750
8861		68.359375
8862		74.218750
8863		68.359375
8864		76.171875
8865		70.312500
8866		76.171875
8867		70.312500
8868		76.171875
8869		72.265625
8870		76.171875
8871		72.265625
8872		76.171875
8873		70.312500
8874		78.125000
8875		72.265625
8876		78.125000
8877		72.265625
8878		78.125000
8879		72.265625
8880		78.125000
8881		72.265625
8882		78.125000
8883		72.265625
8884		78.125000
8885		72.265625
8886		78.125000
8887		74.218750
8888		76.171875
8889		72.265625
8890		78.125000
8891		72.265625
8892		78.125000
8893		72.265625
8894		78.125000
8895		72.265625
8896		78.125000
8897		70.312500
8898		78.125000
8899		70.312500
8900		78.125000
8901		70.312500
8902		76.171875
8903		72.265625
8904		74.218750
8905		72.265625
8906		74.218750
8907		70.312500
8908		76.171875
8909		70.312500
8910		76.171875
8911		68.359375
8912		74.218750
8913		68.359375
8914		74.218750
8915		66.406250
8916		74.218750
8917		66.406250
8918		74.218750
8919		66.406250
8920		72.265625
8921		68.359375
8922		70.312500
8923		64.453125
8924		70.312500
8925		64.453125
8926		70.312500
8927		62.500000
8928		70.312500
8929		62.500000
8930		68.359375
8931		60.546875
8932		68.359375
8933		60.546875
8934		68.359375
8935		60.546875
8936		66.406250
8937		60.546875
8938		62.500000
8939		60.546875
8940		62.500000
8941		56.640625
8942		62.500000
8943		54.687500
8944		62.500000
8945		54.687500
8946		60.546875
8947		52.734375
8948		58.593750
8949		50.781250
8950		58.593750
8951		50.781250
8952		56.640625
8953		50.781250
8954		54.687500
8955		48.828125
8956		52.734375
8957		46.875000
8958		52.734375
8959		44.921875
8960		52.734375
8961		42.968750
8962		50.781250
8963		41.015625
8964		48.828125
8965		41.015625
8966		46.875000
8967		39.062500
8968		44.921875
8969		39.062500
8970		42.968750
8971		37.109375
8972		41.015625
8973		35.156250
8974		39.062500
8975		33.203125
8976		39.062500
8977		29.296875
8978		37.109375
8979		29.296875
8980		37.109375
8981		27.343750
8982		35.156250
8983		25.390625
8984		33.203125
8985		23.437500
8986		31.250000
8987		25.390625
8988		27.343750
8989		23.437500
8990		25.390625
8991		19.531250
8992		25.390625
8993		17.578125
8994		25.390625
8995		15.625000
8996		21.484375
8997		13.671875
8998		21.484375
8999		11.718750
9000		19.531250
9001		9.765625
9002		17.578125
9003		9.765625
9004		15.625000
9005		7.812500
9006		11.718750
9007		3.906250
9008		9.765625
9009		1.953125
9010		9.765625
9011		1.953125
9012		7.812500
9013		0.000000
9014		5.859375
9015		-1.953125
9016		3.906250
9017		-5.859375
9018		1.953125
9019		-5.859375
9020		0.000000
9021		-5.859375
9022		-3.906250
9023		-7.812500
9024		-3.906250
9025		-11.718750
9026		-5.859375
9027		-13.671875
9028		-5.859375
9029		-15.625000
9030		-7.812500
9031		-17.578125
9032		-9.765625
9033		-19.531250
9034		-11.718750
9035		-21.484375
9036		-13.671875
9037		-21.484375
9038		-15.625000
9039		-21.484375
9040		-19.531250
9041		-25.390625
9042		-19.531250
9043		-27.343750
9044		-19.531250
9045		-29.296875
9046		-21.484375
9047		-31.250000
9048		-23.437500
9049		-33.203125
9050		-25.390625
9051		-33.203125
9052		-25.390625
9053		-35.156250
9054		-27.343750
9055		-35.156250
9056		-31.250000
9057		-37.109375
9058		-33.203125
9059		-41.015625
9060		-33.203125
9061		-41.015625
9062		-35.156250
9063		-42.968750
9064		-35.156250
9065		-44.921875
9066		-37.109375
9067		-44.921875
9068		-39.062500
9069		-46.875000
9070		-39.062500
9071		-46.875000
9072		-42.968750
9073		-46.875000
9074		-44.921875
9075		-48.828125
9076		-42.968750
9077		-50.781250
9078		-44.921875
9079		-52.734375
9080		-44.921875
9081		-52.734375
9082		-46.875000
9083		-54.687500
9084		-46.875000
9085		-54.687500
9086		-48.828125
9087		-54.687500
9088		-48.828125
9089		-54.687500
9090		-52.734375
9091		-56.640625
9092		-50.781250
9093		-58.593750
9094		-52.734375
9095		-58.593750
9096		-52.734375
9097		-60.546875
9098		-52.734375
9099		-60.546875
9100		-52.734375
9101		-60.546875
9102		-54.687500
9103		-60.546875
9104		-54.687500
9105		-60.546875
9106		-56.640625
9107		-60.546875
9108		-58.593750
9109		-62.500000
9110		-54.687500
9111		-62.500000
9112		-56.640625
9113		-62.500000
9114		-56.640625
9115		-62.500000
9116		-56.640625
9117		-64.453125
9118		-56.640625
9119		-62.500000
9120		-56.640625
9121		-62.500000
9122		-56.640625
9123		-60.546875
9124		-58.593750
9125		-62.500000
9126		-56.640625
9127		-64.453125
9128		-56.640625
9129		-62.500000
9130		-56.640625
9131		-62.500000
9132		-56.640625
9133		-62.500000
9134		-56.640625
9135		-62.500000
9136		-54.687500
9137		-62.500000
9138		-54.687500
9139		-58.593750
9140		-56.640625
9141		-58.593750
9142		-56.640625
9143		-60.546875
9144		-52.734375
9145		-60.546875
9146		-52.734375
9147		-58.593750
9148		-52.734375
9149		-58.593750
9150		-52.734375
9151		-58.593750
9152		-50.781250
9153		-56.640625
9154		-50.781250
9155		-54.687500
9156		-50.781250
9157		-52.734375
9158		-50.781250
9159		-54.687500
9160		-46.875000
9161		-52.734375
9162		-46.875000
9163		-52.734375
9164		-44.921875
9165		-50.781250
9166		-44.921875
9167		-50.781250
9168		-42.968750
9169		-48.828125
9170		-42.968750
9171		-48.828125
9172		-42.968750
9173		-44.921875
9174		-41.015625
9175		-44.921875
9176		-39.062500
9177		-44.921875
9178		-37.109375
9179		-42.968750
9180		-37.109375
9181		-42.968750
9182		-33.203125
9183		-41.015625
9184		-33.203125
9185		-39.062500
9186		-31.250000
9187		-37.109375
9188		-31.250000
9189		-33.203125
9190		-31.250000
9191		-31.250000
9192		-29.296875
9193		-33.203125
9194		-25.390625
9195		-31.250000
9196		-23.437500
9197		-29.296875
9198		-23.437500
9199		-27.343750
9200		-21.484375
9201		-27.343750
9202		-19.531250
9203		-25.390625
9204		-17.578125
9205		-23.437500
9206		-17.578125
9207		-19.531250
9208		-15.625000
9209		-19.531250
9210		-11.718750
9211		-17.578125
9212		-9.765625
9213		-17.578125
9214		-9.765625
9215		-15.625000
9216		-7.812500
9217		-13.671875
9218		-5.859375
9219		-11.718750
9220		-3.906250
9221		-9.765625
9222		-1.953125
9223		-5.859375
9224		-1.953125
9225		-3.906250
9226		0.000000
9227		-3.906250
9228		3.906250
9229		-1.953125
9230		5.859375
9231		0.000000
9232		7.812500
9233		1.953125
9234		9.765625
9235		3.906250
9236		11.718750
9237		3.906250
9238		11.718750
9239		7.812500
9240		11.718750
9241		11.718750
9242		13.671875
9243		11.718750
9244		17.578125
9245		11.718750
9246		19.531250
9247		13.671875
9248		21.484375
9249		15.625000
9250		23.437500
9251		17.578125
9252		25.390625
9253		19.531250
9254		25.390625
9255		21.484375
9256		27.343750
9257		25.390625
9258		27.343750
9259		25.390625
9260		31.250000
9261		25.390625
9262		33.203125
9263		27.343750
9264		35.156250
9265		29.296875
9266		37.109375
9267		31.250000
9268		39.062500
9269		33.203125
9270		39.062500
9271		33.203125
9272		41.015625
9273		37.109375
9274		41.015625
9275		39.062500
9276		42.968750
9277		39.062500
9278		44.921875
9279		39.062500
9280		46.875000
9281		41.015625
9282		48.828125
9283		42.968750
9284		50.781250
9285		44.921875
9286		50.781250
9287		44.921875
9288		52.734375
9289		46.875000
9290		54.687500
9291		50.781250
9292		52.734375
9293		50.781250
9294		56.640625
9295		50.781250
9296		58.593750
9297		52.734375
9298		58.593750
9299		52.734375
9300		60.546875
9301		54.687500
9302		60.546875
9303		54.687500
9304		62.500000
9305		56.640625
9306		62.500000
9307		58.593750
9308		62.500000
9309		60.546875
9310		64.453125
9311		58.593750
9312		66.406250
9313		60.546875
9314		66.406250
9315		60.546875
9316		68.359375
9317		62.500000
9318		70.312500
9319		64.453125
9320		70.312500
9321		64.453125
9322		70.312500
9323		64.453125
9324		70.312500
9325		68.359375
9326		70.312500
9327		66.406250
9328		72.265625
9329		66.406250
9330		74.218750
9331		68.359375
9332		74.218750
9333		68.359375
9334		74.218750
9335		68.359375
9336		74.218750
9337		68.359375
9338		76.171875
9339		70.312500
9340		76.171875
9341		72.265625
9342		74.218750
9343		70.312500
9344		76.171875
9345		70.312500
9346		76.171875
9347		70.312500
9348		76.171875
9349		70.312500
9350		76.171875
9351		72.265625
9352		78.125000
9353		70.312500
9354		78.125000
9355		72.265625
9356		78.125000
9357		74.218750
9358		76.171875
9359		74.218750
9360		76.171875
9361		72.265625
9362		78.125000
9363		70.312500
9364		78.125000
9365		70.312500
9366		78.125000
9367		70.312500
9368		78.125000
9369		70.312500
9370		78.125000
9371		70.312500
9372		76.171875
9373		70.312500
9374		78.125000
9375		72.265625
9376		74.218750
9377		70.312500
9378		76.171875
9379		70.312500
9380		76.171875
9381		68.359375
9382		76.171875
9383		68.359375
9384		74.218750
9385		68.359375
9386		74.218750
9387		66.406250
9388		74.218750
9389		66.406250
9390		72.265625
9391		68.359375
9392		70.312500
9393		66.406250
9394		70.312500
9395		64.453125
9396		70.312500
9397		62.500000
9398		70.312500
9399		62.500000
9400		70.312500
9401		62.500000
9402		68.359375
9403		60.546875
9404		66.406250
9405		60.546875
9406		66.406250
9407		58.593750
9408		64.453125
9409		60.546875
9410		62.500000
9411		56.640625
9412		62.500000
9413		56.640625
9414		62.500000
9415		54.687500
9416		60.546875
9417		52.734375
9418		60.546875
9419		52.734375
9420		58.593750
9421		50.781250
9422		58.593750
9423		50.781250
9424		56.640625
9425		50.781250
9426		52.734375
9427		46.875000
9428		52.734375
9429		44.921875
9430		52.734375
9431		42.968750
9432		50.781250
9433		42.968750
9434		48.828125
9435		41.015625
9436		48.828125
9437		39.062500
9438		46.875000
9439		37.109375
9440		44.921875
9441		39.062500
9442		41.015625
9443		37.109375
9444		41.015625
9445		33.203125
9446		39.062500
9447		31.250000
9448		39.062500
9449		29.296875
9450		37.109375
9451		29.296875
9452		35.156250
9453		25.390625
9454		33.203125
9455		25.390625
9456		33.203125
9457		25.390625
9458		29.296875
9459		23.437500
9460		27.343750
9461		19.531250
9462		25.390625
9463		17.578125
9464		25.390625
9465		15.625000
9466		23.437500
9467		15.625000
9468		21.484375
9469		11.718750
9470		19.531250
9471		9.765625
9472		17.578125
9473		9.765625
9474		17.578125
9475		9.765625
9476		11.718750
9477		5.859375
9478		11.718750
9479		3.906250
9480		9.765625
9481		1.953125
9482		9.765625
9483		0.000000
9484		7.812500
9485		-1.953125
9486		3.906250
9487		-3.906250
9488		3.906250
9489		-5.859375
9490		1.953125
9491		-5.859375
9492		0.000000
9493		-7.812500
9494		-3.906250
9495		-11.718750
9496		-3.906250
9497		-13.671875
9498		-5.859375
9499		-15.625000
9500		-7.812500
9501		-17.578125
9502		-9.765625
9503		-17.578125
9504		-11.718750
9505		-19.531250
9506		-13.671875
9507		-21.484375
9508		-13.671875
9509		-21.484375
9510		-17.578125
9511		-23.437500
9512		-19.531250
9513		-27.343750
9514		-19.531250
9515		-29.296875
9516		-21.484375
9517		-29.296875
9518		-23.437500
9519		-33.203125
9520		-25.390625
9521		-33.203125
9522		-25.390625
9523		-35.156250
9524		-27.343750
9525		-33.203125
9526		-31.250000
9527		-35.156250
9528		-33.203125
9529		-39.062500
9530		-33.203125
9531		-41.015625
9532		-33.203125
9533		-41.015625
9534		-35.156250
9535		-42.968750
9536		-37.109375
9537		-44.921875
9538		-37.109375
9539		-44.921875
9540		-39.062500
9541		-46.875000
9542		-41.015625
9543		-46.875000
9544		-42.968750
9545		-48.828125
9546		-42.968750
9547		-50.781250
9548		-44.921875
9549		-52.734375
9550		-44.921875
9551		-52.734375
9552		-44.921875
9553		-54.687500
9554		-46.875000
9555		-54.687500
9556		-46.875000
9557		-56.640625
9558		-48.828125
9559		-54.687500
9560		-50.781250
9561		-54.687500
9562		-52.734375
9563		-58.593750
9564		-50.781250
9565		-58.593750
9566		-50.781250
9567		-58.593750
9568		-52.734375
9569		-60.546875
9570		-52.734375
9571		-60.546875
9572		-54.687500
9573		-60.546875
9574		-54.687500
9575		-60.546875
9576		-56.640625
9577		-60.546875
9578		-56.640625
9579		-62.500000
9580		-56.640625
9581		-62.500000
9582		-56.640625
9583		-62.500000
9584		-56.640625
9585		-64.453125
9586		-56.640625
9587		-64.453125
9588		-56.640625
9589		-62.500000
9590		-56.640625
9591		-64.453125
9592		-56.640625
9593		-60.546875
9594		-58.593750
9595		-62.500000
9596		-56.640625
9597		-64.453125
9598		-56.640625
9599		-64.453125
9600		-56.640625
9601		-62.500000
9602		-56.640625
9603		-62.500000
9604		-56.640625
9605		-62.500000
9606		-56.640625
9607		-62.500000
9608		-54.687500
9609		-60.546875
9610		-56.640625
9611		-58.593750
9612		-56.640625
9613		-60.546875
9614		-54.687500
9615		-60.546875
9616		-52.734375
9617		-60.546875
9618		-52.734375
9619		-58.593750
9620		-52.734375
9621		-58.593750
9622		-50.781250
9623		-56.640625
9624		-50.781250
9625		-56.640625
9626		-50.781250
9627		-52.734375
9628		-50.781250
9629		-54.687500
9630		-48.828125
9631		-54.687500
9632		-46.875000
9633		-52.734375
9634		-46.875000
9635		-52.734375
9636		-44.921875
9637		-50.781250
9638		-44.921875
9639		-48.828125
9640		-42.968750
9641		-48.828125
9642		-41.015625
9643		-44.921875
9644		-42.968750
9645		-44.921875
9646		-41.015625
9647		-44.921875
9648		-37.109375
9649		-42.968750
9650		-37.109375
9651		-42.968750
9652		-35.156250
9653		-41.015625
9654		-33.203125
9655		-41.015625
9656		-33.203125
9657		-39.062500
9658		-31.250000
9659		-37.109375
9660		-31.250000
9661		-33.203125
9662		-29.296875
9663		-33.203125
9664		-25.390625
9665		-33.203125
9666		-25.390625
9667		-31.250000
9668		-23.437500
9669		-29.296875
9670		-21.484375
9671		-27.343750
9672		-19.531250
9673		-25.390625
9674		-19.531250
9675		-25.390625
9676		-17.578125
9677		-19.531250
9678		-17.578125
9679		-19.531250
9680		-15.625000
9681		-19.531250
9682		-11.718750
9683		-17.578125
9684		-9.765625
9685		-15.625000
9686		-7.812500
9687		-13.671875
9688		-5.859375
9689		-11.718750
9690		-3.906250
9691		-9.765625
9692		-3.906250
9693		-5.859375
9694		-3.906250
9695		-3.906250
9696		-1.953125
9697		-3.906250
9698		1.953125
9699		-3.906250
9700		3.906250
9701		-1.953125
9702		5.859375
9703		1.953125
9704		7.812500
9705		1.953125
9706		9.765625
9707		3.906250
9708		11.718750
9709		5.859375
9710		11.718750
9711		9.765625
9712		13.671875
9713		9.765625
9714		15.625000
9715		11.718750
9716		19.531250
9717		13.671875
9718		19.531250
9719		13.671875
9720		21.484375
9721		15.625000
9722		23.437500
9723		17.578125
9724		25.390625
9725		19.531250
9726		27.343750
9727		23.437500
9728		27.343750
9729		25.390625
9730		29.296875
9731		25.390625
9732		33.203125
9733		25.390625
9734		33.203125
9735		27.343750
9736		35.156250
9737		29.296875
9738		37.109375
9739		31.250000
9740		39.062500
9741		33.203125
9742		39.062500
9743		35.156250
9744		41.015625
9745		39.062500
9746		41.015625
9747		39.062500
9748		44.921875
9749		39.062500
9750		46.875000
9751		41.015625
9752		46.875000
9753		41.015625
9754		48.828125
9755		44.921875
9756		50.781250
9757		44.921875
9758		50.781250
9759		46.875000
9760		52.734375
9761		48.828125
9762		52.734375
9763		50.781250
9764		54.687500
9765		48.828125
9766		56.640625
9767		50.781250
9768		58.593750
9769		52.734375
9770		60.546875
9771		52.734375
9772		60.546875
9773		54.687500
9774		60.546875
9775		54.687500
9776		62.500000
9777		58.593750
9778		62.500000
9779		60.546875
9780		62.500000
9781		58.593750
9782		66.406250
9783		60.546875
9784		66.406250
9785		60.546875
9786		68.359375
9787		62.500000
9788		68.359375
9789		62.500000
9790		68.359375
9791		62.500000
9792		70.312500
9793		64.453125
9794		70.312500
9795		66.406250
9796		70.312500
9797		66.406250
9798		70.312500
9799		66.406250
9800		72.265625
9801		66.406250
9802		74.218750
9803		66.406250
9804		74.218750
9805		68.359375
9806		74.218750
9807		68.359375
9808		74.218750
9809		68.359375
9810		76.171875
9811		72.265625
9812		74.218750
9813		72.265625
9814		74.218750
9815		70.312500
9816		76.171875
9817		70.312500
9818		78.125000
9819		70.312500
9820		78.125000
9821		70.312500
9822		78.125000
9823		70.312500
9824		78.125000
9825		70.312500
9826		78.125000
9827		72.265625
9828		78.125000
9829		74.218750
9830		76.171875
9831		72.265625
9832		78.125000
9833		70.312500
9834		78.125000
9835		70.312500
9836		78.125000
9837		70.312500
9838		78.125000
9839		70.312500
9840		78.125000
9841		70.312500
9842		78.125000
9843		70.312500
9844		76.171875
9845		72.265625
9846		74.218750
9847		72.265625
9848		74.218750
9849		68.359375
9850		76.171875
9851		68.359375
9852		74.218750
9853		68.359375
9854		74.218750
9855		68.359375
9856		74.218750
9857		66.406250
9858		74.218750
9859		66.406250
9860		72.265625
9861		66.406250
9862		72.265625
9863		66.406250
9864		70.312500
9865		64.453125
9866		70.312500
9867		64.453125
9868		70.312500
9869		62.500000
9870		70.312500
9871		62.500000
9872		68.359375
9873		60.546875
9874		68.359375
9875		60.546875
9876		66.406250
9877		60.546875
9878		66.406250
9879		60.546875
9880		62.500000
9881		58.593750
9882		62.500000
9883		54.687500
9884		62.500000
9885		54.687500
9886		62.500000
9887		52.734375
9888		60.546875
9889		52.734375
9890		58.593750
9891		50.781250
9892		58.593750
9893		50.781250
9894		56.640625
9895		50.781250
9896		54.687500
9897		48.828125
9898		52.734375
9899		44.921875
9900		52.734375
9901		44.921875
9902		50.781250
9903		42.968750
9904		50.781250
9905		41.015625
9906		48.828125
9907		39.062500
9908		46.875000
9909		39.062500
9910		46.875000
9911		39.062500
9912		44.921875
9913		37.109375
9914		41.015625
9915		35.156250
9916		39.062500
9917		33.203125
9918		39.062500
9919		31.250000
9920		39.062500
9921		29.296875
9922		35.156250
9923		27.343750
9924		33.203125
9925		25.390625
9926		33.203125
9927		25.390625
9928		31.250000
9929		23.437500
9930		27.343750
9931		23.437500
9932		25.390625
9933		19.531250
9934		25.390625
9935		17.578125
9936		23.437500
9937		15.625000
9938		23.437500
9939		13.671875
9940		21.484375
9941		11.718750
9942		19.531250
9943		9.765625
9944		17.578125
9945		9.765625
9946		13.671875
9947		7.812500
9948		11.718750
9949		3.906250
9950		9.765625
9951		1.953125
9952		9.765625
9953		0.000000
9954		7.812500
9955		0.000000
9956		5.859375
9957		-1.953125
9958		3.906250
9959		-5.859375
9960		1.953125
9961		-5.859375
9962		0.000000
9963		-5.859375
9964		-3.906250
9965		-9.765625
9966		-3.906250
9967		-11.718750
9968		-3.906250
9969		-13.671875
9970		-5.859375
9971		-15.625000
9972		-9.765625
9973		-17.578125
9974		-9.765625
9975		-19.531250
9976		-11.718750
9977		-21.484375
9978		-13.671875
9979		-21.484375
9980		-17.578125
9981		-21.484375
9982		-19.531250
9983		-25.390625
9984		-19.531250
9985		-27.343750
9986		-19.531250
9987		-29.296875
9988		-21.484375
9989		-31.250000
9990		-23.437500
9991		-33.203125
9992		-25.390625
9993		-33.203125
9994		-27.343750
9995		-35.156250
9996		-29.296875
9997		-35.156250
9998		-31.250000
9999		-39.062500
10000		-33.203125
