Channel              :		CH1
Frequency            :		1.062kHz
Period               :		0.941ms
PK-PK                :		203.1mV
Probe attenuation    :		1X
Voltage per ADC value:		0.122070mV
Time interval        :		2.00000us

index		CH1_Voltage(mV)
1		72.265625
2		72.265625
3		66.406250
4		70.312500
5		64.453125
6		68.359375
7		62.500000
8		66.406250
9		60.546875
10		64.453125
11		58.593750
12		62.500000
13		56.640625
14		60.546875
15		52.734375
16		58.593750
17		50.781250
18		56.640625
19		48.828125
20		54.687500
21		46.875000
22		50.781250
23		44.921875
24		48.828125
25		42.968750
26		46.875000
27		39.062500
28		44.921875
29		39.062500
30		42.968750
31		37.109375
32		41.015625
33		33.203125
34		39.062500
35		31.250000
36		35.156250
37		29.296875
38		33.203125
39		25.390625
40		31.250000
41		23.437500
42		29.296875
43		21.484375
44		25.390625
45		19.531250
46		23.437500
47		17.578125
48		21.484375
49		11.718750
50		17.578125
51		11.718750
52		17.578125
53		7.812500
54		13.671875
55		5.859375
56		9.765625
57		3.906250
58		7.812500
59		1.953125
60		5.859375
61		-1.953125
62		1.953125
63		-3.906250
64		0.000000
65		-5.859375
66		-1.953125
67		-9.765625
68		-3.906250
69		-11.718750
70		-7.812500
71		-13.671875
72		-9.765625
73		-17.578125
74		-11.718750
75		-19.531250
76		-15.625000
77		-23.437500
78		-17.578125
79		-25.390625
80		-19.531250
81		-27.343750
82		-23.437500
83		-29.296875
84		-25.390625
85		-33.203125
86		-27.343750
87		-35.156250
88		-31.250000
89		-37.109375
90		-33.203125
91		-39.062500
92		-35.156250
93		-41.015625
94		-37.109375
95		-44.921875
96		-39.062500
97		-44.921875
98		-42.968750
99		-48.828125
100		-44.921875
101		-50.781250
102		-46.875000
103		-52.734375
104		-48.828125
105		-54.687500
106		-50.781250
107		-56.640625
108		-52.734375
109		-58.593750
110		-54.687500
111		-62.500000
112		-56.640625
113		-62.500000
114		-58.593750
115		-64.453125
116		-60.546875
117		-66.406250
118		-62.500000
119		-68.359375
120		-64.453125
121		-70.312500
122		-66.406250
123		-72.265625
124		-68.359375
125		-72.265625
126		-68.359375
127		-76.171875
128		-70.312500
129		-76.171875
130		-72.265625
131		-76.171875
132		-74.218750
133		-80.078125
134		-76.171875
135		-80.078125
136		-76.171875
137		-82.031250
138		-78.125000
139		-82.031250
140		-78.125000
141		-83.984375
142		-80.078125
143		-83.984375
144		-82.031250
145		-85.937500
146		-82.031250
147		-85.937500
148		-83.984375
149		-85.937500
150		-83.984375
151		-87.890625
152		-83.984375
153		-87.890625
154		-85.937500
155		-89.843750
156		-85.937500
157		-89.843750
158		-85.937500
159		-89.843750
160		-85.937500
161		-89.843750
162		-87.890625
163		-91.796875
164		-87.890625
165		-89.843750
166		-87.890625
167		-91.796875
168		-87.890625
169		-91.796875
170		-87.890625
171		-91.796875
172		-87.890625
173		-89.843750
174		-87.890625
175		-89.843750
176		-87.890625
177		-89.843750
178		-87.890625
179		-91.796875
180		-85.937500
181		-89.843750
182		-87.890625
183		-89.843750
184		-85.937500
185		-89.843750
186		-85.937500
187		-87.890625
188		-85.937500
189		-87.890625
190		-83.984375
191		-85.937500
192		-83.984375
193		-85.937500
194		-82.031250
195		-83.984375
196		-82.031250
197		-83.984375
198		-82.031250
199		-82.031250
200		-80.078125
201		-82.031250
202		-78.125000
203		-80.078125
204		-76.171875
205		-80.078125
206		-76.171875
207		-78.125000
208		-74.218750
209		-78.125000
210		-72.265625
211		-74.218750
212		-72.265625
213		-74.218750
214		-70.312500
215		-72.265625
216		-68.359375
217		-70.312500
218		-66.406250
219		-70.312500
220		-66.406250
221		-66.406250
222		-64.453125
223		-64.453125
224		-62.500000
225		-64.453125
226		-58.593750
227		-62.500000
228		-58.593750
229		-60.546875
230		-54.687500
231		-56.640625
232		-54.687500
233		-54.687500
234		-52.734375
235		-54.687500
236		-48.828125
237		-50.781250
238		-46.875000
239		-50.781250
240		-44.921875
241		-46.875000
242		-42.968750
243		-44.921875
244		-41.015625
245		-42.968750
246		-39.062500
247		-41.015625
248		-37.109375
249		-39.062500
250		-33.203125
251		-35.156250
252		-31.250000
253		-33.203125
254		-29.296875
255		-31.250000
256		-25.390625
257		-27.343750
258		-23.437500
259		-25.390625
260		-21.484375
261		-23.437500
262		-17.578125
263		-21.484375
264		-15.625000
265		-17.578125
266		-13.671875
267		-15.625000
268		-11.718750
269		-13.671875
270		-9.765625
271		-11.718750
272		-5.859375
273		-7.812500
274		-3.906250
275		-5.859375
276		0.000000
277		-3.906250
278		1.953125
279		0.000000
280		5.859375
281		1.953125
282		5.859375
283		5.859375
284		9.765625
285		7.812500
286		11.718750
287		9.765625
288		13.671875
289		11.718750
290		15.625000
291		15.625000
292		19.531250
293		17.578125
294		21.484375
295		19.531250
296		23.437500
297		21.484375
298		27.343750
299		25.390625
300		29.296875
301		27.343750
302		31.250000
303		29.296875
304		33.203125
305		31.250000
306		37.109375
307		33.203125
308		39.062500
309		37.109375
310		41.015625
311		39.062500
312		42.968750
313		41.015625
314		46.875000
315		42.968750
316		46.875000
317		46.875000
318		48.828125
319		48.828125
320		52.734375
321		50.781250
322		54.687500
323		50.781250
324		56.640625
325		54.687500
326		58.593750
327		56.640625
328		60.546875
329		58.593750
330		62.500000
331		60.546875
332		64.453125
333		62.500000
334		66.406250
335		64.453125
336		68.359375
337		66.406250
338		70.312500
339		66.406250
340		72.265625
341		70.312500
342		72.265625
343		72.265625
344		76.171875
345		72.265625
346		76.171875
347		74.218750
348		78.125000
349		76.171875
350		80.078125
351		78.125000
352		82.031250
353		78.125000
354		82.031250
355		80.078125
356		83.984375
357		82.031250
358		85.937500
359		83.984375
360		85.937500
361		83.984375
362		87.890625
363		85.937500
364		89.843750
365		85.937500
366		89.843750
367		87.890625
368		91.796875
369		89.843750
370		91.796875
371		89.843750
372		93.750000
373		91.796875
374		93.750000
375		91.796875
376		95.703125
377		93.750000
378		95.703125
379		93.750000
380		97.656250
381		93.750000
382		97.656250
383		95.703125
384		97.656250
385		95.703125
386		99.609375
387		95.703125
388		99.609375
389		97.656250
390		99.609375
391		97.656250
392		99.609375
393		97.656250
394		101.562500
395		97.656250
396		101.562500
397		97.656250
398		101.562500
399		99.609375
400		101.562500
401		99.609375
402		101.562500
403		97.656250
404		101.562500
405		99.609375
406		101.562500
407		99.609375
408		101.562500
409		97.656250
410		101.562500
411		99.609375
412		101.562500
413		97.656250
414		101.562500
415		97.656250
416		101.562500
417		97.656250
418		101.562500
419		97.656250
420		101.562500
421		97.656250
422		99.609375
423		95.703125
424		99.609375
425		95.703125
426		99.609375
427		95.703125
428		99.609375
429		95.703125
430		97.656250
431		93.750000
432		97.656250
433		93.750000
434		95.703125
435		93.750000
436		95.703125
437		91.796875
438		95.703125
439		91.796875
440		95.703125
441		89.843750
442		95.703125
443		89.843750
444		91.796875
445		87.890625
446		91.796875
447		85.937500
448		91.796875
449		85.937500
450		89.843750
451		83.984375
452		87.890625
453		83.984375
454		85.937500
455		82.031250
456		85.937500
457		80.078125
458		83.984375
459		78.125000
460		82.031250
461		78.125000
462		80.078125
463		76.171875
464		80.078125
465		74.218750
466		78.125000
467		72.265625
468		76.171875
469		70.312500
470		74.218750
471		68.359375
472		72.265625
473		66.406250
474		72.265625
475		64.453125
476		70.312500
477		62.500000
478		68.359375
479		60.546875
480		66.406250
481		58.593750
482		64.453125
483		58.593750
484		60.546875
485		54.687500
486		58.593750
487		52.734375
488		58.593750
489		48.828125
490		56.640625
491		48.828125
492		54.687500
493		44.921875
494		52.734375
495		44.921875
496		48.828125
497		42.968750
498		46.875000
499		39.062500
500		44.921875
501		37.109375
502		41.015625
503		33.203125
504		39.062500
505		31.250000
506		39.062500
507		29.296875
508		37.109375
509		25.390625
510		33.203125
511		25.390625
512		31.250000
513		19.531250
514		27.343750
515		19.531250
516		25.390625
517		17.578125
518		21.484375
519		15.625000
520		19.531250
521		9.765625
522		19.531250
523		7.812500
524		15.625000
525		5.859375
526		13.671875
527		3.906250
528		11.718750
529		1.953125
530		7.812500
531		-1.953125
532		5.859375
533		-1.953125
534		1.953125
535		-5.859375
536		-1.953125
537		-9.765625
538		-3.906250
539		-11.718750
540		-3.906250
541		-15.625000
542		-7.812500
543		-19.531250
544		-9.765625
545		-19.531250
546		-11.718750
547		-21.484375
548		-13.671875
549		-23.437500
550		-17.578125
551		-25.390625
552		-21.484375
553		-29.296875
554		-23.437500
555		-31.250000
556		-23.437500
557		-35.156250
558		-27.343750
559		-37.109375
560		-31.250000
561		-39.062500
562		-33.203125
563		-41.015625
564		-35.156250
565		-42.968750
566		-37.109375
567		-44.921875
568		-41.015625
569		-48.828125
570		-42.968750
571		-50.781250
572		-44.921875
573		-52.734375
574		-46.875000
575		-54.687500
576		-48.828125
577		-56.640625
578		-50.781250
579		-58.593750
580		-52.734375
581		-60.546875
582		-54.687500
583		-62.500000
584		-58.593750
585		-64.453125
586		-60.546875
587		-68.359375
588		-60.546875
589		-70.312500
590		-62.500000
591		-72.265625
592		-64.453125
593		-72.265625
594		-66.406250
595		-74.218750
596		-66.406250
597		-76.171875
598		-70.312500
599		-76.171875
600		-70.312500
601		-76.171875
602		-74.218750
603		-78.125000
604		-74.218750
605		-82.031250
606		-74.218750
607		-82.031250
608		-76.171875
609		-83.984375
610		-76.171875
611		-85.937500
612		-78.125000
613		-85.937500
614		-80.078125
615		-87.890625
616		-82.031250
617		-85.937500
618		-82.031250
619		-85.937500
620		-83.984375
621		-89.843750
622		-83.984375
623		-89.843750
624		-83.984375
625		-91.796875
626		-83.984375
627		-91.796875
628		-85.937500
629		-91.796875
630		-85.937500
631		-93.750000
632		-85.937500
633		-91.796875
634		-87.890625
635		-91.796875
636		-87.890625
637		-91.796875
638		-87.890625
639		-93.750000
640		-87.890625
641		-93.750000
642		-87.890625
643		-93.750000
644		-87.890625
645		-93.750000
646		-87.890625
647		-93.750000
648		-85.937500
649		-93.750000
650		-85.937500
651		-89.843750
652		-87.890625
653		-89.843750
654		-87.890625
655		-91.796875
656		-85.937500
657		-91.796875
658		-83.984375
659		-91.796875
660		-83.984375
661		-89.843750
662		-83.984375
663		-89.843750
664		-82.031250
665		-87.890625
666		-82.031250
667		-87.890625
668		-82.031250
669		-83.984375
670		-82.031250
671		-83.984375
672		-78.125000
673		-83.984375
674		-78.125000
675		-83.984375
676		-76.171875
677		-82.031250
678		-74.218750
679		-82.031250
680		-74.218750
681		-78.125000
682		-72.265625
683		-78.125000
684		-70.312500
685		-74.218750
686		-70.312500
687		-72.265625
688		-70.312500
689		-72.265625
690		-66.406250
691		-72.265625
692		-64.453125
693		-70.312500
694		-62.500000
695		-66.406250
696		-60.546875
697		-66.406250
698		-58.593750
699		-64.453125
700		-56.640625
701		-60.546875
702		-56.640625
703		-58.593750
704		-54.687500
705		-56.640625
706		-50.781250
707		-54.687500
708		-48.828125
709		-52.734375
710		-46.875000
711		-50.781250
712		-44.921875
713		-48.828125
714		-41.015625
715		-46.875000
716		-39.062500
717		-44.921875
718		-39.062500
719		-41.015625
720		-37.109375
721		-39.062500
722		-33.203125
723		-39.062500
724		-29.296875
725		-35.156250
726		-27.343750
727		-31.250000
728		-25.390625
729		-31.250000
730		-21.484375
731		-29.296875
732		-19.531250
733		-25.390625
734		-17.578125
735		-21.484375
736		-17.578125
737		-17.578125
738		-13.671875
739		-17.578125
740		-9.765625
741		-13.671875
742		-7.812500
743		-13.671875
744		-5.859375
745		-11.718750
746		-1.953125
747		-7.812500
748		1.953125
749		-3.906250
750		1.953125
751		-3.906250
752		3.906250
753		1.953125
754		5.859375
755		3.906250
756		11.718750
757		5.859375
758		13.671875
759		7.812500
760		15.625000
761		9.765625
762		17.578125
763		13.671875
764		19.531250
765		15.625000
766		21.484375
767		17.578125
768		25.390625
769		21.484375
770		25.390625
771		25.390625
772		29.296875
773		25.390625
774		31.250000
775		27.343750
776		35.156250
777		31.250000
778		37.109375
779		33.203125
780		41.015625
781		35.156250
782		41.015625
783		37.109375
784		44.921875
785		41.015625
786		44.921875
787		42.968750
788		46.875000
789		44.921875
790		50.781250
791		44.921875
792		52.734375
793		46.875000
794		54.687500
795		50.781250
796		56.640625
797		52.734375
798		58.593750
799		54.687500
800		62.500000
801		54.687500
802		62.500000
803		60.546875
804		62.500000
805		62.500000
806		66.406250
807		62.500000
808		68.359375
809		62.500000
810		70.312500
811		66.406250
812		72.265625
813		66.406250
814		74.218750
815		68.359375
816		76.171875
817		70.312500
818		78.125000
819		74.218750
820		78.125000
821		76.171875
822		78.125000
823		76.171875
824		83.984375
825		76.171875
826		83.984375
827		78.125000
828		83.984375
829		80.078125
830		85.937500
831		82.031250
832		87.890625
833		82.031250
834		87.890625
835		83.984375
836		89.843750
837		85.937500
838		89.843750
839		85.937500
840		91.796875
841		85.937500
842		93.750000
843		87.890625
844		93.750000
845		87.890625
846		95.703125
847		89.843750
848		95.703125
849		89.843750
850		97.656250
851		91.796875
852		97.656250
853		93.750000
854		97.656250
855		95.703125
856		97.656250
857		93.750000
858		99.609375
859		93.750000
860		101.562500
861		93.750000
862		101.562500
863		93.750000
864		101.562500
865		95.703125
866		101.562500
867		93.750000
868		101.562500
869		97.656250
870		101.562500
871		97.656250
872		101.562500
873		95.703125
874		101.562500
875		95.703125
876		103.515625
877		95.703125
878		103.515625
879		95.703125
880		103.515625
881		95.703125
882		103.515625
883		95.703125
884		103.515625
885		95.703125
886		101.562500
887		97.656250
888		99.609375
889		97.656250
890		99.609375
891		95.703125
892		101.562500
893		93.750000
894		101.562500
895		93.750000
896		101.562500
897		93.750000
898		101.562500
899		93.750000
900		99.609375
901		91.796875
902		99.609375
903		93.750000
904		95.703125
905		93.750000
906		95.703125
907		89.843750
908		95.703125
909		87.890625
910		95.703125
911		87.890625
912		95.703125
913		87.890625
914		93.750000
915		85.937500
916		93.750000
917		85.937500
918		91.796875
919		85.937500
920		89.843750
921		83.984375
922		87.890625
923		82.031250
924		87.890625
925		80.078125
926		87.890625
927		78.125000
928		85.937500
929		76.171875
930		83.984375
931		76.171875
932		82.031250
933		74.218750
934		82.031250
935		72.265625
936		80.078125
937		72.265625
938		76.171875
939		70.312500
940		74.218750
941		68.359375
942		74.218750
943		66.406250
944		72.265625
945		64.453125
946		70.312500
947		62.500000
948		70.312500
949		60.546875
950		68.359375
951		58.593750
952		66.406250
953		58.593750
954		62.500000
955		56.640625
956		60.546875
957		52.734375
958		58.593750
959		48.828125
960		56.640625
961		46.875000
962		54.687500
963		46.875000
964		52.734375
965		42.968750
966		50.781250
967		41.015625
968		48.828125
969		41.015625
970		46.875000
971		39.062500
972		42.968750
973		37.109375
974		39.062500
975		31.250000
976		39.062500
977		29.296875
978		37.109375
979		27.343750
980		35.156250
981		25.390625
982		31.250000
983		21.484375
984		29.296875
985		19.531250
986		27.343750
987		19.531250
988		25.390625
989		15.625000
990		19.531250
991		11.718750
992		19.531250
993		9.765625
994		17.578125
995		5.859375
996		13.671875
997		3.906250
998		11.718750
999		1.953125
1000		9.765625
1001		0.000000
1002		5.859375
1003		-1.953125
1004		3.906250
1005		-3.906250
1006		0.000000
1007		-7.812500
1008		-1.953125
1009		-9.765625
1010		-3.906250
1011		-13.671875
1012		-5.859375
1013		-17.578125
1014		-9.765625
1015		-19.531250
1016		-11.718750
1017		-21.484375
1018		-13.671875
1019		-23.437500
1020		-15.625000
1021		-25.390625
1022		-19.531250
1023		-27.343750
1024		-23.437500
1025		-31.250000
1026		-25.390625
1027		-33.203125
1028		-27.343750
1029		-37.109375
1030		-29.296875
1031		-39.062500
1032		-31.250000
1033		-41.015625
1034		-33.203125
1035		-42.968750
1036		-37.109375
1037		-42.968750
1038		-39.062500
1039		-46.875000
1040		-42.968750
1041		-50.781250
1042		-44.921875
1043		-52.734375
1044		-44.921875
1045		-54.687500
1046		-46.875000
1047		-56.640625
1048		-48.828125
1049		-58.593750
1050		-50.781250
1051		-60.546875
1052		-52.734375
1053		-62.500000
1054		-54.687500
1055		-62.500000
1056		-58.593750
1057		-64.453125
1058		-60.546875
1059		-68.359375
1060		-60.546875
1061		-70.312500
1062		-62.500000
1063		-72.265625
1064		-64.453125
1065		-74.218750
1066		-66.406250
1067		-76.171875
1068		-68.359375
1069		-78.125000
1070		-70.312500
1071		-76.171875
1072		-72.265625
1073		-78.125000
1074		-74.218750
1075		-80.078125
1076		-76.171875
1077		-82.031250
1078		-76.171875
1079		-83.984375
1080		-76.171875
1081		-83.984375
1082		-78.125000
1083		-85.937500
1084		-80.078125
1085		-87.890625
1086		-80.078125
1087		-87.890625
1088		-82.031250
1089		-87.890625
1090		-83.984375
1091		-89.843750
1092		-83.984375
1093		-91.796875
1094		-83.984375
1095		-91.796875
1096		-85.937500
1097		-91.796875
1098		-85.937500
1099		-91.796875
1100		-85.937500
1101		-93.750000
1102		-87.890625
1103		-93.750000
1104		-87.890625
1105		-91.796875
1106		-89.843750
1107		-91.796875
1108		-89.843750
1109		-95.703125
1110		-87.890625
1111		-95.703125
1112		-87.890625
1113		-93.750000
1114		-87.890625
1115		-93.750000
1116		-87.890625
1117		-93.750000
1118		-87.890625
1119		-95.703125
1120		-87.890625
1121		-91.796875
1122		-87.890625
1123		-91.796875
1124		-89.843750
1125		-93.750000
1126		-87.890625
1127		-93.750000
1128		-85.937500
1129		-91.796875
1130		-85.937500
1131		-91.796875
1132		-83.984375
1133		-91.796875
1134		-83.984375
1135		-89.843750
1136		-83.984375
1137		-89.843750
1138		-82.031250
1139		-85.937500
1140		-83.984375
1141		-85.937500
1142		-82.031250
1143		-85.937500
1144		-78.125000
1145		-85.937500
1146		-78.125000
1147		-83.984375
1148		-76.171875
1149		-82.031250
1150		-74.218750
1151		-80.078125
1152		-74.218750
1153		-80.078125
1154		-72.265625
1155		-78.125000
1156		-74.218750
1157		-74.218750
1158		-72.265625
1159		-74.218750
1160		-68.359375
1161		-72.265625
1162		-66.406250
1163		-72.265625
1164		-64.453125
1165		-70.312500
1166		-62.500000
1167		-68.359375
1168		-62.500000
1169		-66.406250
1170		-60.546875
1171		-64.453125
1172		-58.593750
1173		-60.546875
1174		-56.640625
1175		-58.593750
1176		-52.734375
1177		-58.593750
1178		-50.781250
1179		-56.640625
1180		-48.828125
1181		-54.687500
1182		-46.875000
1183		-52.734375
1184		-44.921875
1185		-50.781250
1186		-42.968750
1187		-46.875000
1188		-41.015625
1189		-42.968750
1190		-39.062500
1191		-41.015625
1192		-37.109375
1193		-41.015625
1194		-33.203125
1195		-37.109375
1196		-29.296875
1197		-37.109375
1198		-27.343750
1199		-33.203125
1200		-25.390625
1201		-31.250000
1202		-23.437500
1203		-27.343750
1204		-19.531250
1205		-25.390625
1206		-19.531250
1207		-21.484375
1208		-17.578125
1209		-19.531250
1210		-13.671875
1211		-17.578125
1212		-9.765625
1213		-15.625000
1214		-7.812500
1215		-13.671875
1216		-5.859375
1217		-9.765625
1218		-1.953125
1219		-7.812500
1220		0.000000
1221		-5.859375
1222		1.953125
1223		0.000000
1224		3.906250
1225		1.953125
1226		5.859375
1227		1.953125
1228		9.765625
1229		3.906250
1230		11.718750
1231		7.812500
1232		15.625000
1233		9.765625
1234		17.578125
1235		11.718750
1236		19.531250
1237		13.671875
1238		23.437500
1239		19.531250
1240		23.437500
1241		21.484375
1242		25.390625
1243		23.437500
1244		31.250000
1245		25.390625
1246		31.250000
1247		27.343750
1248		35.156250
1249		29.296875
1250		37.109375
1251		31.250000
1252		39.062500
1253		33.203125
1254		42.968750
1255		37.109375
1256		42.968750
1257		41.015625
1258		44.921875
1259		42.968750
1260		48.828125
1261		42.968750
1262		50.781250
1263		44.921875
1264		54.687500
1265		48.828125
1266		54.687500
1267		48.828125
1268		56.640625
1269		52.734375
1270		60.546875
1271		54.687500
1272		60.546875
1273		58.593750
1274		62.500000
1275		60.546875
1276		62.500000
1277		60.546875
1278		68.359375
1279		62.500000
1280		68.359375
1281		64.453125
1282		70.312500
1283		64.453125
1284		72.265625
1285		66.406250
1286		74.218750
1287		68.359375
1288		76.171875
1289		70.312500
1290		76.171875
1291		74.218750
1292		78.125000
1293		74.218750
1294		80.078125
1295		74.218750
1296		82.031250
1297		76.171875
1298		83.984375
1299		78.125000
1300		85.937500
1301		80.078125
1302		85.937500
1303		80.078125
1304		87.890625
1305		82.031250
1306		87.890625
1307		85.937500
1308		87.890625
1309		85.937500
1310		89.843750
1311		85.937500
1312		91.796875
1313		85.937500
1314		93.750000
1315		87.890625
1316		93.750000
1317		87.890625
1318		95.703125
1319		89.843750
1320		95.703125
1321		89.843750
1322		97.656250
1323		91.796875
1324		95.703125
1325		93.750000
1326		95.703125
1327		91.796875
1328		97.656250
1329		93.750000
1330		99.609375
1331		93.750000
1332		99.609375
1333		93.750000
1334		99.609375
1335		93.750000
1336		101.562500
1337		93.750000
1338		101.562500
1339		95.703125
1340		101.562500
1341		97.656250
1342		99.609375
1343		97.656250
1344		101.562500
1345		95.703125
1346		101.562500
1347		95.703125
1348		101.562500
1349		95.703125
1350		101.562500
1351		95.703125
1352		101.562500
1353		95.703125
1354		101.562500
1355		95.703125
1356		101.562500
1357		97.656250
1358		99.609375
1359		97.656250
1360		99.609375
1361		93.750000
1362		101.562500
1363		93.750000
1364		101.562500
1365		93.750000
1366		101.562500
1367		93.750000
1368		99.609375
1369		93.750000
1370		99.609375
1371		91.796875
1372		99.609375
1373		93.750000
1374		97.656250
1375		93.750000
1376		95.703125
1377		89.843750
1378		95.703125
1379		89.843750
1380		95.703125
1381		87.890625
1382		95.703125
1383		87.890625
1384		93.750000
1385		85.937500
1386		93.750000
1387		85.937500
1388		91.796875
1389		83.984375
1390		91.796875
1391		85.937500
1392		87.890625
1393		83.984375
1394		87.890625
1395		80.078125
1396		87.890625
1397		80.078125
1398		85.937500
1399		78.125000
1400		85.937500
1401		76.171875
1402		83.984375
1403		76.171875
1404		82.031250
1405		74.218750
1406		80.078125
1407		74.218750
1408		78.125000
1409		72.265625
1410		76.171875
1411		70.312500
1412		74.218750
1413		68.359375
1414		74.218750
1415		66.406250
1416		72.265625
1417		64.453125
1418		70.312500
1419		62.500000
1420		68.359375
1421		60.546875
1422		66.406250
1423		58.593750
1424		64.453125
1425		56.640625
1426		60.546875
1427		54.687500
1428		58.593750
1429		50.781250
1430		58.593750
1431		50.781250
1432		56.640625
1433		46.875000
1434		54.687500
1435		44.921875
1436		52.734375
1437		42.968750
1438		50.781250
1439		41.015625
1440		48.828125
1441		39.062500
1442		42.968750
1443		37.109375
1444		41.015625
1445		33.203125
1446		41.015625
1447		31.250000
1448		39.062500
1449		27.343750
1450		37.109375
1451		25.390625
1452		33.203125
1453		23.437500
1454		31.250000
1455		21.484375
1456		29.296875
1457		21.484375
1458		27.343750
1459		17.578125
1460		21.484375
1461		13.671875
1462		19.531250
1463		9.765625
1464		19.531250
1465		7.812500
1466		15.625000
1467		5.859375
1468		13.671875
1469		3.906250
1470		11.718750
1471		0.000000
1472		9.765625
1473		0.000000
1474		5.859375
1475		-1.953125
1476		1.953125
1477		-5.859375
1478		-1.953125
1479		-9.765625
1480		-1.953125
1481		-11.718750
1482		-3.906250
1483		-15.625000
1484		-7.812500
1485		-17.578125
1486		-9.765625
1487		-19.531250
1488		-11.718750
1489		-23.437500
1490		-15.625000
1491		-23.437500
1492		-17.578125
1493		-25.390625
1494		-21.484375
1495		-29.296875
1496		-23.437500
1497		-33.203125
1498		-25.390625
1499		-35.156250
1500		-27.343750
1501		-37.109375
1502		-29.296875
1503		-41.015625
1504		-31.250000
1505		-42.968750
1506		-33.203125
1507		-42.968750
1508		-37.109375
1509		-44.921875
1510		-41.015625
1511		-46.875000
1512		-42.968750
1513		-52.734375
1514		-44.921875
1515		-52.734375
1516		-46.875000
1517		-54.687500
1518		-48.828125
1519		-58.593750
1520		-50.781250
1521		-60.546875
1522		-52.734375
1523		-62.500000
1524		-54.687500
1525		-62.500000
1526		-56.640625
1527		-64.453125
1528		-60.546875
1529		-68.359375
1530		-60.546875
1531		-68.359375
1532		-62.500000
1533		-70.312500
1534		-64.453125
1535		-72.265625
1536		-66.406250
1537		-74.218750
1538		-66.406250
1539		-76.171875
1540		-68.359375
1541		-78.125000
1542		-70.312500
1543		-76.171875
1544		-74.218750
1545		-80.078125
1546		-74.218750
1547		-82.031250
1548		-76.171875
1549		-83.984375
1550		-76.171875
1551		-83.984375
1552		-78.125000
1553		-85.937500
1554		-78.125000
1555		-85.937500
1556		-80.078125
1557		-87.890625
1558		-80.078125
1559		-87.890625
1560		-83.984375
1561		-87.890625
1562		-85.937500
1563		-89.843750
1564		-83.984375
1565		-91.796875
1566		-83.984375
1567		-91.796875
1568		-85.937500
1569		-91.796875
1570		-85.937500
1571		-93.750000
1572		-85.937500
1573		-93.750000
1574		-87.890625
1575		-93.750000
1576		-87.890625
1577		-91.796875
1578		-89.843750
1579		-93.750000
1580		-87.890625
1581		-93.750000
1582		-87.890625
1583		-95.703125
1584		-87.890625
1585		-95.703125
1586		-87.890625
1587		-95.703125
1588		-87.890625
1589		-95.703125
1590		-87.890625
1591		-93.750000
1592		-87.890625
1593		-91.796875
1594		-89.843750
1595		-91.796875
1596		-89.843750
1597		-93.750000
1598		-85.937500
1599		-93.750000
1600		-85.937500
1601		-91.796875
1602		-85.937500
1603		-91.796875
1604		-83.984375
1605		-89.843750
1606		-83.984375
1607		-89.843750
1608		-83.984375
1609		-87.890625
1610		-83.984375
1611		-85.937500
1612		-83.984375
1613		-87.890625
1614		-80.078125
1615		-85.937500
1616		-78.125000
1617		-83.984375
1618		-78.125000
1619		-83.984375
1620		-76.171875
1621		-82.031250
1622		-74.218750
1623		-80.078125
1624		-74.218750
1625		-80.078125
1626		-74.218750
1627		-76.171875
1628		-72.265625
1629		-76.171875
1630		-68.359375
1631		-74.218750
1632		-66.406250
1633		-72.265625
1634		-64.453125
1635		-70.312500
1636		-64.453125
1637		-68.359375
1638		-62.500000
1639		-66.406250
1640		-60.546875
1641		-66.406250
1642		-58.593750
1643		-62.500000
1644		-58.593750
1645		-58.593750
1646		-56.640625
1647		-58.593750
1648		-52.734375
1649		-58.593750
1650		-50.781250
1651		-54.687500
1652		-48.828125
1653		-54.687500
1654		-46.875000
1655		-50.781250
1656		-42.968750
1657		-48.828125
1658		-41.015625
1659		-46.875000
1660		-39.062500
1661		-42.968750
1662		-39.062500
1663		-39.062500
1664		-35.156250
1665		-39.062500
1666		-31.250000
1667		-37.109375
1668		-29.296875
1669		-35.156250
1670		-27.343750
1671		-31.250000
1672		-23.437500
1673		-29.296875
1674		-21.484375
1675		-27.343750
1676		-19.531250
1677		-23.437500
1678		-17.578125
1679		-19.531250
1680		-15.625000
1681		-19.531250
1682		-11.718750
1683		-17.578125
1684		-9.765625
1685		-15.625000
1686		-5.859375
1687		-11.718750
1688		-3.906250
1689		-7.812500
1690		-1.953125
1691		-5.859375
1692		0.000000
1693		-3.906250
1694		1.953125
1695		0.000000
1696		3.906250
1697		1.953125
1698		7.812500
1699		3.906250
1700		11.718750
1701		5.859375
1702		13.671875
1703		7.812500
1704		15.625000
1705		11.718750
1706		19.531250
1707		13.671875
1708		21.484375
1709		15.625000
1710		23.437500
1711		19.531250
1712		25.390625
1713		23.437500
1714		29.296875
1715		23.437500
1716		31.250000
1717		27.343750
1718		33.203125
1719		27.343750
1720		35.156250
1721		31.250000
1722		39.062500
1723		33.203125
1724		41.015625
1725		35.156250
1726		42.968750
1727		39.062500
1728		42.968750
1729		41.015625
1730		44.921875
1731		42.968750
1732		48.828125
1733		44.921875
1734		52.734375
1735		46.875000
1736		54.687500
1737		48.828125
1738		54.687500
1739		50.781250
1740		58.593750
1741		52.734375
1742		60.546875
1743		54.687500
1744		60.546875
1745		58.593750
1746		62.500000
1747		58.593750
1748		66.406250
1749		60.546875
1750		68.359375
1751		62.500000
1752		70.312500
1753		64.453125
1754		72.265625
1755		66.406250
1756		74.218750
1757		66.406250
1758		74.218750
1759		70.312500
1760		76.171875
1761		72.265625
1762		76.171875
1763		74.218750
1764		78.125000
1765		74.218750
1766		82.031250
1767		76.171875
1768		83.984375
1769		76.171875
1770		83.984375
1771		78.125000
1772		85.937500
1773		80.078125
1774		85.937500
1775		80.078125
1776		87.890625
1777		82.031250
1778		87.890625
1779		85.937500
1780		87.890625
1781		83.984375
1782		91.796875
1783		85.937500
1784		91.796875
1785		85.937500
1786		93.750000
1787		87.890625
1788		93.750000
1789		87.890625
1790		95.703125
1791		89.843750
1792		95.703125
1793		89.843750
1794		97.656250
1795		93.750000
1796		95.703125
1797		93.750000
1798		99.609375
1799		93.750000
1800		99.609375
1801		93.750000
1802		99.609375
1803		93.750000
1804		99.609375
1805		93.750000
1806		99.609375
1807		93.750000
1808		101.562500
1809		95.703125
1810		101.562500
1811		95.703125
1812		99.609375
1813		97.656250
1814		99.609375
1815		95.703125
1816		103.515625
1817		95.703125
1818		101.562500
1819		95.703125
1820		101.562500
1821		95.703125
1822		101.562500
1823		95.703125
1824		101.562500
1825		95.703125
1826		101.562500
1827		95.703125
1828		103.515625
1829		97.656250
1830		99.609375
1831		95.703125
1832		101.562500
1833		95.703125
1834		101.562500
1835		93.750000
1836		101.562500
1837		93.750000
1838		101.562500
1839		93.750000
1840		99.609375
1841		93.750000
1842		99.609375
1843		91.796875
1844		99.609375
1845		93.750000
1846		95.703125
1847		93.750000
1848		95.703125
1849		89.843750
1850		97.656250
1851		89.843750
1852		95.703125
1853		87.890625
1854		95.703125
1855		87.890625
1856		93.750000
1857		85.937500
1858		93.750000
1859		85.937500
1860		91.796875
1861		85.937500
1862		91.796875
1863		83.984375
1864		87.890625
1865		82.031250
1866		87.890625
1867		80.078125
1868		87.890625
1869		78.125000
1870		85.937500
1871		76.171875
1872		83.984375
1873		76.171875
1874		83.984375
1875		74.218750
1876		82.031250
1877		74.218750
1878		80.078125
1879		72.265625
1880		78.125000
1881		70.312500
1882		76.171875
1883		68.359375
1884		76.171875
1885		66.406250
1886		74.218750
1887		64.453125
1888		72.265625
1889		62.500000
1890		70.312500
1891		60.546875
1892		68.359375
1893		58.593750
1894		66.406250
1895		58.593750
1896		62.500000
1897		56.640625
1898		60.546875
1899		52.734375
1900		60.546875
1901		50.781250
1902		58.593750
1903		46.875000
1904		56.640625
1905		46.875000
1906		54.687500
1907		44.921875
1908		52.734375
1909		42.968750
1910		48.828125
1911		41.015625
1912		46.875000
1913		39.062500
1914		42.968750
1915		35.156250
1916		41.015625
1917		33.203125
1918		41.015625
1919		31.250000
1920		37.109375
1921		27.343750
1922		35.156250
1923		25.390625
1924		33.203125
1925		21.484375
1926		31.250000
1927		21.484375
1928		27.343750
1929		19.531250
1930		23.437500
1931		17.578125
1932		21.484375
1933		11.718750
1934		21.484375
1935		9.765625
1936		17.578125
1937		7.812500
1938		15.625000
1939		5.859375
1940		13.671875
1941		3.906250
1942		9.765625
1943		0.000000
1944		7.812500
1945		-1.953125
1946		5.859375
1947		-3.906250
1948		0.000000
1949		-7.812500
1950		-1.953125
1951		-9.765625
1952		-1.953125
1953		-13.671875
1954		-5.859375
1955		-15.625000
1956		-7.812500
1957		-17.578125
1958		-11.718750
1959		-19.531250
1960		-13.671875
1961		-23.437500
1962		-15.625000
1963		-23.437500
1964		-19.531250
1965		-27.343750
1966		-21.484375
1967		-31.250000
1968		-23.437500
1969		-33.203125
1970		-25.390625
1971		-35.156250
1972		-27.343750
1973		-39.062500
1974		-31.250000
1975		-39.062500
1976		-33.203125
1977		-42.968750
1978		-35.156250
1979		-42.968750
1980		-39.062500
1981		-44.921875
1982		-41.015625
1983		-48.828125
1984		-42.968750
1985		-50.781250
1986		-44.921875
1987		-54.687500
1988		-46.875000
1989		-56.640625
1990		-46.875000
1991		-58.593750
1992		-50.781250
1993		-60.546875
1994		-52.734375
1995		-62.500000
1996		-54.687500
1997		-62.500000
1998		-58.593750
1999		-66.406250
2000		-60.546875
2001		-68.359375
2002		-60.546875
2003		-70.312500
2004		-62.500000
2005		-72.265625
2006		-64.453125
2007		-74.218750
2008		-66.406250
2009		-76.171875
2010		-68.359375
2011		-76.171875
2012		-70.312500
2013		-76.171875
2014		-72.265625
2015		-78.125000
2016		-74.218750
2017		-82.031250
2018		-74.218750
2019		-82.031250
2020		-76.171875
2021		-82.031250
2022		-76.171875
2023		-83.984375
2024		-78.125000
2025		-85.937500
2026		-78.125000
2027		-87.890625
2028		-80.078125
2029		-85.937500
2030		-82.031250
2031		-87.890625
2032		-83.984375
2033		-89.843750
2034		-83.984375
2035		-91.796875
2036		-83.984375
2037		-91.796875
2038		-83.984375
2039		-91.796875
2040		-85.937500
2041		-93.750000
2042		-85.937500
2043		-93.750000
2044		-85.937500
2045		-93.750000
2046		-85.937500
2047		-91.796875
2048		-89.843750
2049		-91.796875
2050		-89.843750
2051		-93.750000
2052		-87.890625
2053		-95.703125
2054		-87.890625
2055		-95.703125
2056		-87.890625
2057		-93.750000
2058		-87.890625
2059		-93.750000
2060		-87.890625
2061		-95.703125
2062		-87.890625
2063		-91.796875
2064		-89.843750
2065		-91.796875
2066		-87.890625
2067		-93.750000
2068		-85.937500
2069		-93.750000
2070		-85.937500
2071		-91.796875
2072		-85.937500
2073		-91.796875
2074		-85.937500
2075		-91.796875
2076		-83.984375
2077		-89.843750
2078		-83.984375
2079		-89.843750
2080		-82.031250
2081		-85.937500
2082		-83.984375
2083		-85.937500
2084		-82.031250
2085		-87.890625
2086		-80.078125
2087		-85.937500
2088		-78.125000
2089		-83.984375
2090		-78.125000
2091		-83.984375
2092		-76.171875
2093		-82.031250
2094		-74.218750
2095		-80.078125
2096		-74.218750
2097		-76.171875
2098		-74.218750
2099		-76.171875
2100		-72.265625
2101		-76.171875
2102		-68.359375
2103		-74.218750
2104		-66.406250
2105		-72.265625
2106		-64.453125
2107		-70.312500
2108		-62.500000
2109		-70.312500
2110		-60.546875
2111		-66.406250
2112		-60.546875
2113		-64.453125
2114		-58.593750
2115		-60.546875
2116		-56.640625
2117		-60.546875
2118		-52.734375
2119		-58.593750
2120		-50.781250
2121		-56.640625
2122		-48.828125
2123		-54.687500
2124		-46.875000
2125		-52.734375
2126		-44.921875
2127		-50.781250
2128		-42.968750
2129		-48.828125
2130		-41.015625
2131		-44.921875
2132		-39.062500
2133		-41.015625
2134		-37.109375
2135		-41.015625
2136		-33.203125
2137		-39.062500
2138		-31.250000
2139		-37.109375
2140		-29.296875
2141		-33.203125
2142		-25.390625
2143		-31.250000
2144		-23.437500
2145		-29.296875
2146		-21.484375
2147		-25.390625
2148		-21.484375
2149		-21.484375
2150		-17.578125
2151		-19.531250
2152		-13.671875
2153		-19.531250
2154		-11.718750
2155		-15.625000
2156		-7.812500
2157		-13.671875
2158		-5.859375
2159		-11.718750
2160		-3.906250
2161		-9.765625
2162		0.000000
2163		-7.812500
2164		0.000000
2165		-1.953125
2166		1.953125
2167		0.000000
2168		5.859375
2169		1.953125
2170		9.765625
2171		5.859375
2172		11.718750
2173		5.859375
2174		13.671875
2175		9.765625
2176		17.578125
2177		11.718750
2178		19.531250
2179		13.671875
2180		21.484375
2181		19.531250
2182		23.437500
2183		21.484375
2184		25.390625
2185		21.484375
2186		29.296875
2187		23.437500
2188		31.250000
2189		27.343750
2190		33.203125
2191		29.296875
2192		37.109375
2193		31.250000
2194		39.062500
2195		33.203125
2196		41.015625
2197		37.109375
2198		41.015625
2199		41.015625
2200		42.968750
2201		41.015625
2202		46.875000
2203		42.968750
2204		50.781250
2205		44.921875
2206		52.734375
2207		46.875000
2208		54.687500
2209		48.828125
2210		56.640625
2211		50.781250
2212		58.593750
2213		52.734375
2214		60.546875
2215		56.640625
2216		60.546875
2217		58.593750
2218		62.500000
2219		58.593750
2220		66.406250
2221		60.546875
2222		68.359375
2223		62.500000
2224		70.312500
2225		64.453125
2226		72.265625
2227		66.406250
2228		72.265625
2229		68.359375
2230		76.171875
2231		70.312500
2232		76.171875
2233		74.218750
2234		76.171875
2235		74.218750
2236		80.078125
2237		74.218750
2238		82.031250
2239		76.171875
2240		82.031250
2241		76.171875
2242		83.984375
2243		78.125000
2244		85.937500
2245		80.078125
2246		87.890625
2247		82.031250
2248		87.890625
2249		83.984375
2250		87.890625
2251		85.937500
2252		89.843750
2253		85.937500
2254		91.796875
2255		85.937500
2256		93.750000
2257		85.937500
2258		93.750000
2259		87.890625
2260		93.750000
2261		87.890625
2262		95.703125
2263		89.843750
2264		97.656250
2265		91.796875
2266		95.703125
2267		93.750000
2268		95.703125
2269		91.796875
2270		99.609375
2271		91.796875
2272		99.609375
2273		93.750000
2274		99.609375
2275		93.750000
2276		99.609375
2277		93.750000
2278		101.562500
2279		95.703125
2280		101.562500
2281		95.703125
2282		101.562500
2283		97.656250
2284		99.609375
2285		95.703125
2286		101.562500
2287		95.703125
2288		101.562500
2289		95.703125
2290		101.562500
2291		95.703125
2292		101.562500
2293		95.703125
2294		103.515625
2295		95.703125
2296		101.562500
2297		95.703125
2298		101.562500
2299		97.656250
2300		99.609375
2301		97.656250
2302		99.609375
2303		95.703125
2304		101.562500
2305		93.750000
2306		101.562500
2307		93.750000
2308		101.562500
2309		93.750000
2310		101.562500
2311		93.750000
2312		99.609375
2313		91.796875
2314		99.609375
2315		93.750000
2316		99.609375
2317		93.750000
2318		95.703125
2319		89.843750
2320		97.656250
2321		89.843750
2322		97.656250
2323		89.843750
2324		95.703125
2325		87.890625
2326		95.703125
2327		85.937500
2328		93.750000
2329		85.937500
2330		93.750000
2331		85.937500
2332		91.796875
2333		85.937500
2334		87.890625
2335		82.031250
2336		87.890625
2337		82.031250
2338		87.890625
2339		80.078125
2340		87.890625
2341		78.125000
2342		85.937500
2343		76.171875
2344		83.984375
2345		74.218750
2346		82.031250
2347		74.218750
2348		82.031250
2349		74.218750
2350		78.125000
2351		72.265625
2352		76.171875
2353		68.359375
2354		76.171875
2355		66.406250
2356		76.171875
2357		66.406250
2358		74.218750
2359		64.453125
2360		70.312500
2361		62.500000
2362		70.312500
2363		60.546875
2364		68.359375
2365		58.593750
2366		66.406250
2367		58.593750
2368		62.500000
2369		54.687500
2370		60.546875
2371		52.734375
2372		58.593750
2373		48.828125
2374		58.593750
2375		48.828125
2376		54.687500
2377		44.921875
2378		52.734375
2379		44.921875
2380		50.781250
2381		42.968750
2382		48.828125
2383		41.015625
2384		44.921875
2385		39.062500
2386		42.968750
2387		35.156250
2388		41.015625
2389		31.250000
2390		39.062500
2391		29.296875
2392		37.109375
2393		27.343750
2394		35.156250
2395		25.390625
2396		31.250000
2397		23.437500
2398		29.296875
2399		21.484375
2400		27.343750
2401		19.531250
2402		23.437500
2403		15.625000
2404		21.484375
2405		11.718750
2406		19.531250
2407		9.765625
2408		17.578125
2409		7.812500
2410		13.671875
2411		3.906250
2412		11.718750
2413		1.953125
2414		9.765625
2415		0.000000
2416		5.859375
2417		-1.953125
2418		3.906250
2419		-5.859375
2420		0.000000
2421		-7.812500
2422		-1.953125
2423		-11.718750
2424		-3.906250
2425		-13.671875
2426		-5.859375
2427		-15.625000
2428		-7.812500
2429		-19.531250
2430		-11.718750
2431		-21.484375
2432		-13.671875
2433		-21.484375
2434		-17.578125
2435		-25.390625
2436		-19.531250
2437		-29.296875
2438		-21.484375
2439		-31.250000
2440		-23.437500
2441		-33.203125
2442		-25.390625
2443		-37.109375
2444		-29.296875
2445		-39.062500
2446		-31.250000
2447		-41.015625
2448		-33.203125
2449		-41.015625
2450		-35.156250
2451		-42.968750
2452		-39.062500
2453		-48.828125
2454		-41.015625
2455		-50.781250
2456		-42.968750
2457		-52.734375
2458		-44.921875
2459		-54.687500
2460		-46.875000
2461		-56.640625
2462		-48.828125
2463		-58.593750
2464		-50.781250
2465		-60.546875
2466		-52.734375
2467		-60.546875
2468		-56.640625
2469		-62.500000
2470		-58.593750
2471		-66.406250
2472		-60.546875
2473		-68.359375
2474		-60.546875
2475		-70.312500
2476		-62.500000
2477		-72.265625
2478		-64.453125
2479		-74.218750
2480		-66.406250
2481		-76.171875
2482		-68.359375
2483		-74.218750
2484		-70.312500
2485		-76.171875
2486		-74.218750
2487		-80.078125
2488		-72.265625
2489		-82.031250
2490		-74.218750
2491		-82.031250
2492		-76.171875
2493		-83.984375
2494		-76.171875
2495		-83.984375
2496		-78.125000
2497		-85.937500
2498		-80.078125
2499		-87.890625
2500		-80.078125
2501		-85.937500
2502		-83.984375
2503		-89.843750
2504		-83.984375
2505		-89.843750
2506		-83.984375
2507		-89.843750
2508		-83.984375
2509		-91.796875
2510		-83.984375
2511		-91.796875
2512		-85.937500
2513		-93.750000
2514		-85.937500
2515		-93.750000
2516		-85.937500
2517		-91.796875
2518		-89.843750
2519		-91.796875
2520		-89.843750
2521		-93.750000
2522		-87.890625
2523		-93.750000
2524		-87.890625
2525		-95.703125
2526		-87.890625
2527		-95.703125
2528		-87.890625
2529		-93.750000
2530		-87.890625
2531		-93.750000
2532		-87.890625
2533		-93.750000
2534		-87.890625
2535		-91.796875
2536		-89.843750
2537		-93.750000
2538		-87.890625
2539		-93.750000
2540		-85.937500
2541		-91.796875
2542		-85.937500
2543		-91.796875
2544		-85.937500
2545		-91.796875
2546		-83.984375
2547		-91.796875
2548		-83.984375
2549		-89.843750
2550		-83.984375
2551		-87.890625
2552		-83.984375
2553		-85.937500
2554		-83.984375
2555		-87.890625
2556		-80.078125
2557		-85.937500
2558		-78.125000
2559		-85.937500
2560		-78.125000
2561		-83.984375
2562		-76.171875
2563		-82.031250
2564		-76.171875
2565		-80.078125
2566		-74.218750
2567		-80.078125
2568		-74.218750
2569		-76.171875
2570		-72.265625
2571		-76.171875
2572		-70.312500
2573		-76.171875
2574		-68.359375
2575		-74.218750
2576		-66.406250
2577		-72.265625
2578		-64.453125
2579		-70.312500
2580		-62.500000
2581		-68.359375
2582		-60.546875
2583		-66.406250
2584		-58.593750
2585		-62.500000
2586		-58.593750
2587		-60.546875
2588		-54.687500
2589		-60.546875
2590		-52.734375
2591		-58.593750
2592		-50.781250
2593		-56.640625
2594		-48.828125
2595		-54.687500
2596		-46.875000
2597		-52.734375
2598		-44.921875
2599		-50.781250
2600		-42.968750
2601		-46.875000
2602		-41.015625
2603		-44.921875
2604		-39.062500
2605		-42.968750
2606		-35.156250
2607		-41.015625
2608		-33.203125
2609		-39.062500
2610		-29.296875
2611		-35.156250
2612		-29.296875
2613		-33.203125
2614		-25.390625
2615		-31.250000
2616		-23.437500
2617		-29.296875
2618		-21.484375
2619		-23.437500
2620		-19.531250
2621		-21.484375
2622		-15.625000
2623		-19.531250
2624		-13.671875
2625		-17.578125
2626		-11.718750
2627		-15.625000
2628		-7.812500
2629		-13.671875
2630		-5.859375
2631		-9.765625
2632		-1.953125
2633		-7.812500
2634		0.000000
2635		-3.906250
2636		0.000000
2637		-1.953125
2638		3.906250
2639		0.000000
2640		7.812500
2641		1.953125
2642		9.765625
2643		3.906250
2644		11.718750
2645		5.859375
2646		15.625000
2647		9.765625
2648		17.578125
2649		11.718750
2650		19.531250
2651		13.671875
2652		21.484375
2653		19.531250
2654		23.437500
2655		21.484375
2656		27.343750
2657		21.484375
2658		29.296875
2659		23.437500
2660		31.250000
2661		27.343750
2662		35.156250
2663		29.296875
2664		37.109375
2665		33.203125
2666		39.062500
2667		33.203125
2668		41.015625
2669		39.062500
2670		42.968750
2671		41.015625
2672		44.921875
2673		41.015625
2674		48.828125
2675		42.968750
2676		50.781250
2677		44.921875
2678		52.734375
2679		46.875000
2680		54.687500
2681		48.828125
2682		56.640625
2683		50.781250
2684		58.593750
2685		54.687500
2686		58.593750
2687		58.593750
2688		60.546875
2689		58.593750
2690		64.453125
2691		58.593750
2692		66.406250
2693		60.546875
2694		68.359375
2695		62.500000
2696		70.312500
2697		64.453125
2698		72.265625
2699		66.406250
2700		74.218750
2701		68.359375
2702		74.218750
2703		72.265625
2704		76.171875
2705		74.218750
2706		78.125000
2707		72.265625
2708		80.078125
2709		74.218750
2710		82.031250
2711		76.171875
2712		82.031250
2713		78.125000
2714		85.937500
2715		78.125000
2716		85.937500
2717		80.078125
2718		87.890625
2719		83.984375
2720		85.937500
2721		85.937500
2722		87.890625
2723		83.984375
2724		91.796875
2725		83.984375
2726		91.796875
2727		85.937500
2728		93.750000
2729		87.890625
2730		93.750000
2731		87.890625
2732		93.750000
2733		87.890625
2734		95.703125
2735		89.843750
2736		95.703125
2737		93.750000
2738		95.703125
2739		93.750000
2740		97.656250
2741		91.796875
2742		97.656250
2743		91.796875
2744		99.609375
2745		93.750000
2746		99.609375
2747		93.750000
2748		99.609375
2749		93.750000
2750		99.609375
2751		93.750000
2752		101.562500
2753		97.656250
2754		99.609375
2755		97.656250
2756		99.609375
2757		95.703125
2758		101.562500
2759		95.703125
2760		101.562500
2761		95.703125
2762		101.562500
2763		95.703125
2764		101.562500
2765		95.703125
2766		101.562500
2767		95.703125
2768		101.562500
2769		97.656250
2770		99.609375
2771		97.656250
2772		99.609375
2773		95.703125
2774		101.562500
2775		93.750000
2776		101.562500
2777		93.750000
2778		101.562500
2779		93.750000
2780		99.609375
2781		93.750000
2782		99.609375
2783		93.750000
2784		99.609375
2785		91.796875
2786		97.656250
2787		93.750000
2788		95.703125
2789		91.796875
2790		95.703125
2791		89.843750
2792		95.703125
2793		89.843750
2794		95.703125
2795		87.890625
2796		95.703125
2797		87.890625
2798		93.750000
2799		85.937500
2800		93.750000
2801		85.937500
2802		91.796875
2803		85.937500
2804		89.843750
2805		85.937500
2806		87.890625
2807		82.031250
2808		87.890625
2809		80.078125
2810		87.890625
2811		80.078125
2812		85.937500
2813		78.125000
2814		85.937500
2815		76.171875
2816		83.984375
2817		74.218750
2818		82.031250
2819		74.218750
2820		82.031250
2821		74.218750
2822		78.125000
2823		72.265625
2824		76.171875
2825		68.359375
2826		76.171875
2827		66.406250
2828		74.218750
2829		64.453125
2830		72.265625
2831		64.453125
2832		70.312500
2833		60.546875
2834		68.359375
2835		60.546875
2836		66.406250
2837		58.593750
2838		62.500000
2839		54.687500
2840		60.546875
2841		52.734375
2842		60.546875
2843		50.781250
2844		58.593750
2845		48.828125
2846		56.640625
2847		46.875000
2848		54.687500
2849		44.921875
2850		52.734375
2851		41.015625
2852		50.781250
2853		42.968750
2854		46.875000
2855		39.062500
2856		42.968750
2857		35.156250
2858		42.968750
2859		33.203125
2860		41.015625
2861		29.296875
2862		39.062500
2863		29.296875
2864		37.109375
2865		25.390625
2866		33.203125
2867		23.437500
2868		31.250000
2869		21.484375
2870		29.296875
2871		19.531250
2872		25.390625
2873		17.578125
2874		21.484375
2875		13.671875
2876		21.484375
2877		11.718750
2878		19.531250
2879		7.812500
2880		15.625000
2881		5.859375
2882		13.671875
2883		1.953125
2884		11.718750
2885		1.953125
2886		7.812500
2887		0.000000
2888		3.906250
2889		-1.953125
2890		1.953125
2891		-7.812500
2892		0.000000
2893		-9.765625
2894		-1.953125
2895		-11.718750
2896		-3.906250
2897		-15.625000
2898		-5.859375
2899		-17.578125
2900		-9.765625
2901		-19.531250
2902		-11.718750
2903		-21.484375
2904		-15.625000
2905		-23.437500
2906		-19.531250
2907		-27.343750
2908		-21.484375
2909		-29.296875
2910		-23.437500
2911		-31.250000
2912		-23.437500
2913		-33.203125
2914		-27.343750
2915		-37.109375
2916		-29.296875
2917		-39.062500
2918		-31.250000
2919		-41.015625
2920		-35.156250
2921		-42.968750
2922		-39.062500
2923		-44.921875
2924		-41.015625
2925		-48.828125
2926		-41.015625
2927		-50.781250
2928		-42.968750
2929		-52.734375
2930		-46.875000
2931		-54.687500
2932		-48.828125
2933		-58.593750
2934		-50.781250
2935		-60.546875
2936		-52.734375
2937		-60.546875
2938		-54.687500
2939		-62.500000
2940		-58.593750
2941		-66.406250
2942		-60.546875
2943		-68.359375
2944		-60.546875
2945		-70.312500
2946		-62.500000
2947		-72.265625
2948		-64.453125
2949		-72.265625
2950		-66.406250
2951		-74.218750
2952		-68.359375
2953		-76.171875
2954		-68.359375
2955		-76.171875
2956		-72.265625
2957		-78.125000
2958		-74.218750
2959		-80.078125
2960		-74.218750
2961		-82.031250
2962		-76.171875
2963		-83.984375
2964		-76.171875
2965		-83.984375
2966		-78.125000
2967		-85.937500
2968		-80.078125
2969		-87.890625
2970		-80.078125
2971		-85.937500
2972		-83.984375
2973		-87.890625
2974		-83.984375
2975		-89.843750
2976		-83.984375
2977		-89.843750
2978		-83.984375
2979		-91.796875
2980		-85.937500
2981		-91.796875
2982		-85.937500
2983		-93.750000
2984		-85.937500
2985		-93.750000
2986		-87.890625
2987		-93.750000
2988		-87.890625
2989		-91.796875
2990		-89.843750
2991		-93.750000
2992		-89.843750
2993		-95.703125
2994		-87.890625
2995		-95.703125
2996		-87.890625
2997		-95.703125
2998		-87.890625
2999		-95.703125
3000		-87.890625
3001		-95.703125
3002		-87.890625
3003		-95.703125
3004		-87.890625
3005		-91.796875
3006		-89.843750
3007		-91.796875
3008		-89.843750
3009		-93.750000
3010		-87.890625
3011		-93.750000
3012		-85.937500
3013		-93.750000
3014		-85.937500
3015		-91.796875
3016		-85.937500
3017		-91.796875
3018		-85.937500
3019		-91.796875
3020		-83.984375
3021		-91.796875
3022		-83.984375
3023		-87.890625
3024		-83.984375
3025		-87.890625
3026		-82.031250
3027		-87.890625
3028		-80.078125
3029		-85.937500
3030		-78.125000
3031		-85.937500
3032		-78.125000
3033		-83.984375
3034		-76.171875
3035		-82.031250
3036		-76.171875
3037		-82.031250
3038		-74.218750
3039		-78.125000
3040		-74.218750
3041		-76.171875
3042		-72.265625
3043		-78.125000
3044		-70.312500
3045		-76.171875
3046		-68.359375
3047		-74.218750
3048		-66.406250
3049		-72.265625
3050		-64.453125
3051		-70.312500
3052		-62.500000
3053		-68.359375
3054		-60.546875
3055		-64.453125
3056		-60.546875
3057		-62.500000
3058		-58.593750
3059		-62.500000
3060		-54.687500
3061		-60.546875
3062		-52.734375
3063		-58.593750
3064		-50.781250
3065		-56.640625
3066		-48.828125
3067		-54.687500
3068		-46.875000
3069		-52.734375
3070		-44.921875
3071		-48.828125
3072		-42.968750
3073		-44.921875
3074		-41.015625
3075		-42.968750
3076		-37.109375
3077		-42.968750
3078		-35.156250
3079		-41.015625
3080		-33.203125
3081		-39.062500
3082		-31.250000
3083		-35.156250
3084		-27.343750
3085		-33.203125
3086		-25.390625
3087		-29.296875
3088		-23.437500
3089		-25.390625
3090		-21.484375
3091		-23.437500
3092		-19.531250
3093		-21.484375
3094		-15.625000
3095		-19.531250
3096		-13.671875
3097		-17.578125
3098		-11.718750
3099		-15.625000
3100		-7.812500
3101		-11.718750
3102		-5.859375
3103		-7.812500
3104		-3.906250
3105		-5.859375
3106		-1.953125
3107		-3.906250
3108		0.000000
3109		0.000000
3110		5.859375
3111		0.000000
3112		7.812500
3113		1.953125
3114		9.765625
3115		3.906250
3116		13.671875
3117		7.812500
3118		15.625000
3119		9.765625
3120		17.578125
3121		11.718750
3122		19.531250
3123		17.578125
3124		21.484375
3125		19.531250
3126		25.390625
3127		21.484375
3128		27.343750
3129		21.484375
3130		29.296875
3131		25.390625
3132		33.203125
3133		27.343750
3134		35.156250
3135		29.296875
3136		37.109375
3137		31.250000
3138		39.062500
3139		37.109375
3140		41.015625
3141		39.062500
3142		42.968750
3143		41.015625
3144		46.875000
3145		41.015625
3146		48.828125
3147		42.968750
3148		50.781250
3149		46.875000
3150		52.734375
3151		48.828125
3152		54.687500
3153		48.828125
3154		56.640625
3155		52.734375
3156		58.593750
3157		56.640625
3158		58.593750
3159		58.593750
3160		62.500000
3161		58.593750
3162		66.406250
3163		60.546875
3164		68.359375
3165		60.546875
3166		70.312500
3167		62.500000
3168		70.312500
3169		66.406250
3170		72.265625
3171		66.406250
3172		74.218750
3173		70.312500
3174		74.218750
3175		72.265625
3176		76.171875
3177		72.265625
3178		80.078125
3179		72.265625
3180		80.078125
3181		74.218750
3182		82.031250
3183		76.171875
3184		83.984375
3185		78.125000
3186		85.937500
3187		80.078125
3188		85.937500
3189		82.031250
3190		85.937500
3191		83.984375
3192		87.890625
3193		83.984375
3194		89.843750
3195		83.984375
3196		91.796875
3197		85.937500
3198		91.796875
3199		85.937500
3200		93.750000
3201		87.890625
3202		93.750000
3203		87.890625
3204		95.703125
3205		89.843750
3206		95.703125
3207		91.796875
3208		93.750000
3209		91.796875
3210		95.703125
3211		91.796875
3212		97.656250
3213		91.796875
3214		97.656250
3215		93.750000
3216		99.609375
3217		93.750000
3218		99.609375
3219		93.750000
3220		101.562500
3221		93.750000
3222		101.562500
3223		95.703125
3224		99.609375
3225		97.656250
3226		99.609375
3227		95.703125
3228		101.562500
3229		95.703125
3230		101.562500
3231		95.703125
3232		101.562500
3233		95.703125
3234		101.562500
3235		95.703125
3236		101.562500
3237		95.703125
3238		101.562500
3239		95.703125
3240		101.562500
3241		97.656250
3242		99.609375
3243		95.703125
3244		99.609375
3245		95.703125
3246		101.562500
3247		93.750000
3248		101.562500
3249		93.750000
3250		99.609375
3251		93.750000
3252		101.562500
3253		93.750000
3254		99.609375
3255		93.750000
3256		99.609375
3257		93.750000
3258		97.656250
3259		93.750000
3260		95.703125
3261		91.796875
3262		97.656250
3263		89.843750
3264		97.656250
3265		89.843750
3266		97.656250
3267		87.890625
3268		95.703125
3269		87.890625
3270		93.750000
3271		87.890625
3272		93.750000
3273		85.937500
3274		91.796875
3275		85.937500
3276		89.843750
3277		83.984375
3278		89.843750
3279		82.031250
3280		89.843750
3281		80.078125
3282		87.890625
3283		78.125000
3284		85.937500
3285		78.125000
3286		83.984375
3287		76.171875
3288		83.984375
3289		76.171875
3290		82.031250
3291		76.171875
3292		78.125000
3293		74.218750
3294		78.125000
3295		70.312500
3296		78.125000
3297		68.359375
3298		76.171875
3299		66.406250
3300		74.218750
3301		64.453125
3302		72.265625
3303		62.500000
3304		70.312500
3305		60.546875
3306		68.359375
3307		60.546875
3308		64.453125
3309		58.593750
3310		62.500000
3311		56.640625
3312		62.500000
3313		52.734375
3314		60.546875
3315		50.781250
3316		58.593750
3317		48.828125
3318		56.640625
3319		46.875000
3320		54.687500
3321		44.921875
3322		52.734375
3323		44.921875
3324		48.828125
3325		42.968750
3326		46.875000
3327		39.062500
3328		42.968750
3329		35.156250
3330		42.968750
3331		33.203125
3332		41.015625
3333		29.296875
3334		39.062500
3335		29.296875
3336		35.156250
3337		25.390625
3338		33.203125
3339		23.437500
3340		31.250000
3341		23.437500
3342		27.343750
3343		19.531250
3344		25.390625
3345		15.625000
3346		21.484375
3347		13.671875
3348		21.484375
3349		9.765625
3350		17.578125
3351		7.812500
3352		15.625000
3353		5.859375
3354		11.718750
3355		3.906250
3356		9.765625
3357		1.953125
3358		7.812500
3359		0.000000
3360		3.906250
3361		-3.906250
3362		1.953125
3363		-5.859375
3364		0.000000
3365		-9.765625
3366		-1.953125
3367		-13.671875
3368		-3.906250
3369		-15.625000
3370		-7.812500
3371		-17.578125
3372		-9.765625
3373		-19.531250
3374		-11.718750
3375		-21.484375
3376		-17.578125
3377		-23.437500
3378		-19.531250
3379		-27.343750
3380		-21.484375
3381		-29.296875
3382		-21.484375
3383		-33.203125
3384		-25.390625
3385		-35.156250
3386		-27.343750
3387		-37.109375
3388		-29.296875
3389		-39.062500
3390		-31.250000
3391		-41.015625
3392		-35.156250
3393		-42.968750
3394		-39.062500
3395		-46.875000
3396		-41.015625
3397		-48.828125
3398		-41.015625
3399		-52.734375
3400		-44.921875
3401		-52.734375
3402		-46.875000
3403		-56.640625
3404		-48.828125
3405		-58.593750
3406		-48.828125
3407		-58.593750
3408		-52.734375
3409		-60.546875
3410		-56.640625
3411		-62.500000
3412		-58.593750
3413		-66.406250
3414		-58.593750
3415		-66.406250
3416		-60.546875
3417		-70.312500
3418		-62.500000
3419		-70.312500
3420		-64.453125
3421		-72.265625
3422		-64.453125
3423		-74.218750
3424		-66.406250
3425		-74.218750
3426		-70.312500
3427		-76.171875
3428		-72.265625
3429		-80.078125
3430		-72.265625
3431		-80.078125
3432		-74.218750
3433		-82.031250
3434		-74.218750
3435		-83.984375
3436		-76.171875
3437		-83.984375
3438		-78.125000
3439		-85.937500
3440		-78.125000
3441		-85.937500
3442		-80.078125
3443		-85.937500
3444		-82.031250
3445		-89.843750
3446		-82.031250
3447		-89.843750
3448		-82.031250
3449		-89.843750
3450		-83.984375
3451		-91.796875
3452		-83.984375
3453		-91.796875
3454		-85.937500
3455		-91.796875
3456		-85.937500
3457		-93.750000
3458		-85.937500
3459		-91.796875
3460		-89.843750
3461		-91.796875
3462		-89.843750
3463		-93.750000
3464		-87.890625
3465		-93.750000
3466		-87.890625
3467		-95.703125
3468		-87.890625
3469		-93.750000
3470		-87.890625
3471		-93.750000
3472		-87.890625
3473		-93.750000
3474		-87.890625
3475		-91.796875
3476		-89.843750
3477		-91.796875
3478		-89.843750
3479		-93.750000
3480		-87.890625
3481		-93.750000
3482		-85.937500
3483		-93.750000
3484		-85.937500
3485		-91.796875
3486		-85.937500
3487		-91.796875
3488		-83.984375
3489		-89.843750
3490		-83.984375
3491		-89.843750
3492		-83.984375
3493		-87.890625
3494		-83.984375
3495		-85.937500
3496		-82.031250
3497		-87.890625
3498		-80.078125
3499		-85.937500
3500		-80.078125
3501		-85.937500
3502		-78.125000
3503		-83.984375
3504		-76.171875
3505		-82.031250
3506		-76.171875
3507		-82.031250
3508		-74.218750
3509		-78.125000
3510		-74.218750
3511		-76.171875
3512		-74.218750
3513		-76.171875
3514		-70.312500
3515		-76.171875
3516		-68.359375
3517		-74.218750
3518		-68.359375
3519		-72.265625
3520		-64.453125
3521		-70.312500
3522		-62.500000
3523		-70.312500
3524		-62.500000
3525		-68.359375
3526		-60.546875
3527		-62.500000
3528		-60.546875
3529		-62.500000
3530		-54.687500
3531		-60.546875
3532		-54.687500
3533		-60.546875
3534		-52.734375
3535		-56.640625
3536		-48.828125
3537		-54.687500
3538		-46.875000
3539		-52.734375
3540		-44.921875
3541		-50.781250
3542		-44.921875
3543		-46.875000
3544		-42.968750
3545		-44.921875
3546		-41.015625
3547		-42.968750
3548		-37.109375
3549		-41.015625
3550		-33.203125
3551		-39.062500
3552		-31.250000
3553		-37.109375
3554		-29.296875
3555		-35.156250
3556		-27.343750
3557		-33.203125
3558		-23.437500
3559		-29.296875
3560		-23.437500
3561		-25.390625
3562		-21.484375
3563		-21.484375
3564		-15.625000
3565		-21.484375
3566		-13.671875
3567		-19.531250
3568		-9.765625
3569		-17.578125
3570		-9.765625
3571		-13.671875
3572		-5.859375
3573		-11.718750
3574		-3.906250
3575		-7.812500
3576		-1.953125
3577		-3.906250
3578		0.000000
3579		-1.953125
3580		3.906250
3581		-1.953125
3582		7.812500
3583		1.953125
3584		9.765625
3585		3.906250
3586		11.718750
3587		5.859375
3588		15.625000
3589		9.765625
3590		17.578125
3591		11.718750
3592		19.531250
3593		15.625000
3594		19.531250
3595		17.578125
3596		23.437500
3597		19.531250
3598		27.343750
3599		21.484375
3600		29.296875
3601		23.437500
3602		33.203125
3603		27.343750
3604		35.156250
3605		29.296875
3606		37.109375
3607		31.250000
3608		39.062500
3609		35.156250
3610		39.062500
3611		37.109375
3612		41.015625
3613		41.015625
3614		44.921875
3615		39.062500
3616		48.828125
3617		42.968750
3618		50.781250
3619		44.921875
3620		52.734375
3621		46.875000
3622		54.687500
3623		48.828125
3624		56.640625
3625		50.781250
3626		58.593750
3627		54.687500
3628		58.593750
3629		56.640625
3630		60.546875
3631		58.593750
3632		64.453125
3633		60.546875
3634		66.406250
3635		62.500000
3636		68.359375
3637		62.500000
3638		70.312500
3639		64.453125
3640		72.265625
3641		66.406250
3642		74.218750
3643		68.359375
3644		74.218750
3645		72.265625
3646		76.171875
3647		72.265625
3648		80.078125
3649		74.218750
3650		80.078125
3651		74.218750
3652		82.031250
3653		76.171875
3654		83.984375
3655		78.125000
3656		83.984375
3657		78.125000
3658		85.937500
3659		80.078125
3660		85.937500
3661		83.984375
3662		85.937500
3663		83.984375
3664		87.890625
3665		83.984375
3666		89.843750
3667		85.937500
3668		91.796875
3669		85.937500
3670		93.750000
3671		87.890625
3672		93.750000
3673		87.890625
3674		95.703125
3675		89.843750
3676		95.703125
3677		91.796875
3678		95.703125
3679		93.750000
3680		95.703125
3681		91.796875
3682		97.656250
3683		91.796875
3684		97.656250
3685		93.750000
3686		99.609375
3687		93.750000
3688		99.609375
3689		93.750000
3690		101.562500
3691		93.750000
3692		101.562500
3693		93.750000
3694		101.562500
3695		97.656250
3696		99.609375
3697		97.656250
3698		101.562500
3699		95.703125
3700		101.562500
3701		95.703125
3702		103.515625
3703		95.703125
3704		103.515625
3705		95.703125
3706		103.515625
3707		95.703125
3708		103.515625
3709		95.703125
3710		103.515625
3711		97.656250
3712		101.562500
3713		97.656250
3714		99.609375
3715		95.703125
3716		103.515625
3717		95.703125
3718		101.562500
3719		95.703125
3720		101.562500
3721		95.703125
3722		101.562500
3723		93.750000
3724		101.562500
3725		93.750000
3726		99.609375
3727		93.750000
3728		99.609375
3729		93.750000
3730		97.656250
3731		91.796875
3732		97.656250
3733		91.796875
3734		97.656250
3735		89.843750
3736		97.656250
3737		91.796875
3738		95.703125
3739		87.890625
3740		95.703125
3741		87.890625
3742		93.750000
3743		85.937500
3744		93.750000
3745		87.890625
3746		89.843750
3747		83.984375
3748		89.843750
3749		83.984375
3750		89.843750
3751		82.031250
3752		87.890625
3753		82.031250
3754		87.890625
3755		78.125000
3756		85.937500
3757		78.125000
3758		85.937500
3759		76.171875
3760		83.984375
3761		76.171875
3762		80.078125
3763		76.171875
3764		78.125000
3765		72.265625
3766		78.125000
3767		70.312500
3768		78.125000
3769		70.312500
3770		74.218750
3771		68.359375
3772		72.265625
3773		64.453125
3774		72.265625
3775		62.500000
3776		70.312500
3777		62.500000
3778		68.359375
3779		60.546875
3780		64.453125
3781		58.593750
3782		62.500000
3783		54.687500
3784		62.500000
3785		54.687500
3786		58.593750
3787		52.734375
3788		56.640625
3789		48.828125
3790		54.687500
3791		46.875000
3792		52.734375
3793		44.921875
3794		50.781250
3795		44.921875
3796		48.828125
3797		41.015625
3798		44.921875
3799		37.109375
3800		44.921875
3801		37.109375
3802		41.015625
3803		35.156250
3804		39.062500
3805		31.250000
3806		37.109375
3807		29.296875
3808		33.203125
3809		27.343750
3810		31.250000
3811		25.390625
3812		31.250000
3813		23.437500
3814		27.343750
3815		17.578125
3816		23.437500
3817		17.578125
3818		23.437500
3819		15.625000
3820		19.531250
3821		11.718750
3822		15.625000
3823		9.765625
3824		13.671875
3825		5.859375
3826		11.718750
3827		3.906250
3828		9.765625
3829		1.953125
3830		5.859375
3831		-1.953125
3832		3.906250
3833		-3.906250
3834		1.953125
3835		-5.859375
3836		-1.953125
3837		-7.812500
3838		-3.906250
3839		-9.765625
3840		-5.859375
3841		-13.671875
3842		-7.812500
3843		-17.578125
3844		-11.718750
3845		-17.578125
3846		-13.671875
3847		-21.484375
3848		-17.578125
3849		-23.437500
3850		-19.531250
3851		-25.390625
3852		-21.484375
3853		-29.296875
3854		-23.437500
3855		-31.250000
3856		-25.390625
3857		-33.203125
3858		-29.296875
3859		-35.156250
3860		-31.250000
3861		-37.109375
3862		-33.203125
3863		-41.015625
3864		-37.109375
3865		-42.968750
3866		-39.062500
3867		-44.921875
3868		-41.015625
3869		-46.875000
3870		-42.968750
3871		-48.828125
3872		-44.921875
3873		-52.734375
3874		-46.875000
3875		-54.687500
3876		-50.781250
3877		-56.640625
3878		-52.734375
3879		-58.593750
3880		-54.687500
3881		-60.546875
3882		-56.640625
3883		-62.500000
3884		-56.640625
3885		-64.453125
3886		-58.593750
3887		-66.406250
3888		-62.500000
3889		-68.359375
3890		-64.453125
3891		-68.359375
3892		-64.453125
3893		-70.312500
3894		-66.406250
3895		-72.265625
3896		-68.359375
3897		-74.218750
3898		-70.312500
3899		-76.171875
3900		-70.312500
3901		-76.171875
3902		-74.218750
3903		-78.125000
3904		-74.218750
3905		-80.078125
3906		-76.171875
3907		-80.078125
3908		-76.171875
3909		-82.031250
3910		-78.125000
3911		-83.984375
3912		-80.078125
3913		-83.984375
3914		-80.078125
3915		-83.984375
3916		-82.031250
3917		-85.937500
3918		-82.031250
3919		-85.937500
3920		-83.984375
3921		-87.890625
3922		-83.984375
3923		-87.890625
3924		-85.937500
3925		-89.843750
3926		-85.937500
3927		-89.843750
3928		-85.937500
3929		-89.843750
3930		-87.890625
3931		-89.843750
3932		-87.890625
3933		-91.796875
3934		-87.890625
3935		-91.796875
3936		-87.890625
3937		-89.843750
3938		-87.890625
3939		-89.843750
3940		-87.890625
3941		-89.843750
3942		-87.890625
3943		-89.843750
3944		-87.890625
3945		-89.843750
3946		-87.890625
3947		-89.843750
3948		-87.890625
3949		-91.796875
3950		-87.890625
3951		-89.843750
3952		-87.890625
3953		-89.843750
3954		-87.890625
3955		-89.843750
3956		-85.937500
3957		-87.890625
3958		-85.937500
3959		-87.890625
3960		-83.984375
3961		-87.890625
3962		-83.984375
3963		-85.937500
3964		-83.984375
3965		-85.937500
3966		-82.031250
3967		-85.937500
3968		-82.031250
3969		-83.984375
3970		-80.078125
3971		-83.984375
3972		-80.078125
3973		-82.031250
3974		-78.125000
3975		-80.078125
3976		-76.171875
3977		-80.078125
3978		-76.171875
3979		-80.078125
3980		-74.218750
3981		-76.171875
3982		-72.265625
3983		-74.218750
3984		-70.312500
3985		-72.265625
3986		-70.312500
3987		-72.265625
3988		-68.359375
3989		-70.312500
3990		-66.406250
3991		-68.359375
3992		-64.453125
3993		-66.406250
3994		-62.500000
3995		-64.453125
3996		-60.546875
3997		-62.500000
3998		-58.593750
3999		-60.546875
4000		-56.640625
4001		-58.593750
4002		-54.687500
4003		-56.640625
4004		-52.734375
4005		-54.687500
4006		-50.781250
4007		-52.734375
4008		-48.828125
4009		-50.781250
4010		-44.921875
4011		-48.828125
4012		-44.921875
4013		-46.875000
4014		-42.968750
4015		-44.921875
4016		-41.015625
4017		-42.968750
4018		-37.109375
4019		-39.062500
4020		-35.156250
4021		-37.109375
4022		-33.203125
4023		-35.156250
4024		-31.250000
4025		-33.203125
4026		-27.343750
4027		-29.296875
4028		-25.390625
4029		-27.343750
4030		-23.437500
4031		-25.390625
4032		-19.531250
4033		-21.484375
4034		-17.578125
4035		-19.531250
4036		-15.625000
4037		-17.578125
4038		-13.671875
4039		-15.625000
4040		-9.765625
4041		-13.671875
4042		-7.812500
4043		-9.765625
4044		-5.859375
4045		-7.812500
4046		-1.953125
4047		-3.906250
4048		0.000000
4049		-1.953125
4050		1.953125
4051		1.953125
4052		5.859375
4053		3.906250
4054		7.812500
4055		5.859375
4056		9.765625
4057		7.812500
4058		11.718750
4059		9.765625
4060		15.625000
4061		13.671875
4062		17.578125
4063		15.625000
4064		19.531250
4065		19.531250
4066		23.437500
4067		21.484375
4068		25.390625
4069		23.437500
4070		27.343750
4071		25.390625
4072		31.250000
4073		29.296875
4074		33.203125
4075		31.250000
4076		35.156250
4077		33.203125
4078		37.109375
4079		35.156250
4080		39.062500
4081		37.109375
4082		41.015625
4083		41.015625
4084		44.921875
4085		41.015625
4086		46.875000
4087		44.921875
4088		48.828125
4089		46.875000
4090		50.781250
4091		48.828125
4092		52.734375
4093		50.781250
4094		54.687500
4095		52.734375
4096		56.640625
4097		54.687500
4098		58.593750
4099		56.640625
4100		60.546875
4101		58.593750
4102		64.453125
4103		60.546875
4104		66.406250
4105		62.500000
4106		66.406250
4107		64.453125
4108		70.312500
4109		66.406250
4110		70.312500
4111		68.359375
4112		72.265625
4113		70.312500
4114		74.218750
4115		72.265625
4116		76.171875
4117		74.218750
4118		78.125000
4119		76.171875
4120		80.078125
4121		78.125000
4122		80.078125
4123		78.125000
4124		82.031250
4125		80.078125
4126		83.984375
4127		82.031250
4128		85.937500
4129		82.031250
4130		87.890625
4131		83.984375
4132		87.890625
4133		85.937500
4134		87.890625
4135		85.937500
4136		89.843750
4137		87.890625
4138		91.796875
4139		87.890625
4140		91.796875
4141		89.843750
4142		93.750000
4143		91.796875
4144		93.750000
4145		91.796875
4146		95.703125
4147		93.750000
4148		95.703125
4149		93.750000
4150		95.703125
4151		93.750000
4152		97.656250
4153		95.703125
4154		97.656250
4155		95.703125
4156		99.609375
4157		95.703125
4158		99.609375
4159		97.656250
4160		99.609375
4161		97.656250
4162		99.609375
4163		97.656250
4164		101.562500
4165		99.609375
4166		101.562500
4167		99.609375
4168		101.562500
4169		97.656250
4170		101.562500
4171		99.609375
4172		101.562500
4173		99.609375
4174		103.515625
4175		99.609375
4176		101.562500
4177		99.609375
4178		103.515625
4179		99.609375
4180		103.515625
4181		99.609375
4182		101.562500
4183		99.609375
4184		101.562500
4185		99.609375
4186		103.515625
4187		99.609375
4188		103.515625
4189		97.656250
4190		101.562500
4191		97.656250
4192		101.562500
4193		97.656250
4194		101.562500
4195		97.656250
4196		101.562500
4197		95.703125
4198		101.562500
4199		97.656250
4200		99.609375
4201		95.703125
4202		97.656250
4203		93.750000
4204		97.656250
4205		93.750000
4206		97.656250
4207		93.750000
4208		97.656250
4209		91.796875
4210		95.703125
4211		91.796875
4212		95.703125
4213		89.843750
4214		93.750000
4215		89.843750
4216		93.750000
4217		87.890625
4218		91.796875
4219		87.890625
4220		91.796875
4221		85.937500
4222		89.843750
4223		83.984375
4224		87.890625
4225		83.984375
4226		87.890625
4227		82.031250
4228		85.937500
4229		80.078125
4230		83.984375
4231		80.078125
4232		83.984375
4233		78.125000
4234		82.031250
4235		76.171875
4236		80.078125
4237		74.218750
4238		78.125000
4239		72.265625
4240		76.171875
4241		72.265625
4242		74.218750
4243		68.359375
4244		72.265625
4245		68.359375
4246		70.312500
4247		64.453125
4248		70.312500
4249		64.453125
4250		66.406250
4251		62.500000
4252		64.453125
4253		58.593750
4254		64.453125
4255		56.640625
4256		62.500000
4257		56.640625
4258		58.593750
4259		52.734375
4260		56.640625
4261		50.781250
4262		54.687500
4263		48.828125
4264		52.734375
4265		46.875000
4266		52.734375
4267		44.921875
4268		48.828125
4269		42.968750
4270		46.875000
4271		39.062500
4272		44.921875
4273		37.109375
4274		41.015625
4275		35.156250
4276		39.062500
4277		33.203125
4278		37.109375
4279		31.250000
4280		35.156250
4281		29.296875
4282		33.203125
4283		25.390625
4284		29.296875
4285		21.484375
4286		27.343750
4287		19.531250
4288		25.390625
4289		17.578125
4290		23.437500
4291		15.625000
4292		19.531250
4293		13.671875
4294		17.578125
4295		9.765625
4296		15.625000
4297		7.812500
4298		11.718750
4299		5.859375
4300		9.765625
4301		1.953125
4302		7.812500
4303		0.000000
4304		3.906250
4305		-1.953125
4306		1.953125
4307		-5.859375
4308		0.000000
4309		-7.812500
4310		-3.906250
4311		-9.765625
4312		-5.859375
4313		-11.718750
4314		-7.812500
4315		-15.625000
4316		-9.765625
4317		-17.578125
4318		-13.671875
4319		-19.531250
4320		-15.625000
4321		-23.437500
4322		-17.578125
4323		-25.390625
4324		-21.484375
4325		-27.343750
4326		-23.437500
4327		-31.250000
4328		-25.390625
4329		-33.203125
4330		-29.296875
4331		-35.156250
4332		-31.250000
4333		-37.109375
4334		-33.203125
4335		-39.062500
4336		-35.156250
4337		-42.968750
4338		-37.109375
4339		-44.921875
4340		-39.062500
4341		-46.875000
4342		-42.968750
4343		-48.828125
4344		-44.921875
4345		-50.781250
4346		-46.875000
4347		-52.734375
4348		-48.828125
4349		-54.687500
4350		-50.781250
4351		-56.640625
4352		-52.734375
4353		-58.593750
4354		-54.687500
4355		-60.546875
4356		-56.640625
4357		-62.500000
4358		-58.593750
4359		-64.453125
4360		-60.546875
4361		-66.406250
4362		-62.500000
4363		-68.359375
4364		-64.453125
4365		-68.359375
4366		-66.406250
4367		-70.312500
4368		-68.359375
4369		-74.218750
4370		-68.359375
4371		-74.218750
4372		-70.312500
4373		-76.171875
4374		-72.265625
4375		-76.171875
4376		-74.218750
4377		-78.125000
4378		-74.218750
4379		-80.078125
4380		-76.171875
4381		-80.078125
4382		-78.125000
4383		-82.031250
4384		-78.125000
4385		-82.031250
4386		-80.078125
4387		-83.984375
4388		-80.078125
4389		-83.984375
4390		-80.078125
4391		-85.937500
4392		-82.031250
4393		-85.937500
4394		-82.031250
4395		-87.890625
4396		-83.984375
4397		-87.890625
4398		-83.984375
4399		-87.890625
4400		-83.984375
4401		-87.890625
4402		-85.937500
4403		-87.890625
4404		-85.937500
4405		-87.890625
4406		-85.937500
4407		-89.843750
4408		-85.937500
4409		-89.843750
4410		-85.937500
4411		-89.843750
4412		-85.937500
4413		-89.843750
4414		-85.937500
4415		-89.843750
4416		-85.937500
4417		-89.843750
4418		-85.937500
4419		-89.843750
4420		-85.937500
4421		-89.843750
4422		-85.937500
4423		-87.890625
4424		-85.937500
4425		-87.890625
4426		-83.984375
4427		-87.890625
4428		-83.984375
4429		-87.890625
4430		-83.984375
4431		-85.937500
4432		-83.984375
4433		-85.937500
4434		-83.984375
4435		-83.984375
4436		-82.031250
4437		-83.984375
4438		-80.078125
4439		-83.984375
4440		-80.078125
4441		-82.031250
4442		-78.125000
4443		-82.031250
4444		-76.171875
4445		-80.078125
4446		-76.171875
4447		-80.078125
4448		-74.218750
4449		-76.171875
4450		-74.218750
4451		-76.171875
4452		-72.265625
4453		-74.218750
4454		-70.312500
4455		-74.218750
4456		-70.312500
4457		-72.265625
4458		-68.359375
4459		-70.312500
4460		-66.406250
4461		-68.359375
4462		-64.453125
4463		-66.406250
4464		-62.500000
4465		-64.453125
4466		-60.546875
4467		-62.500000
4468		-58.593750
4469		-60.546875
4470		-56.640625
4471		-58.593750
4472		-54.687500
4473		-56.640625
4474		-52.734375
4475		-54.687500
4476		-50.781250
4477		-52.734375
4478		-48.828125
4479		-50.781250
4480		-46.875000
4481		-48.828125
4482		-44.921875
4483		-46.875000
4484		-42.968750
4485		-44.921875
4486		-41.015625
4487		-42.968750
4488		-37.109375
4489		-39.062500
4490		-35.156250
4491		-37.109375
4492		-33.203125
4493		-35.156250
4494		-31.250000
4495		-33.203125
4496		-27.343750
4497		-29.296875
4498		-25.390625
4499		-27.343750
4500		-23.437500
4501		-25.390625
4502		-21.484375
4503		-23.437500
4504		-19.531250
4505		-21.484375
4506		-15.625000
4507		-17.578125
4508		-13.671875
4509		-15.625000
4510		-9.765625
4511		-11.718750
4512		-7.812500
4513		-9.765625
4514		-5.859375
4515		-7.812500
4516		-1.953125
4517		-5.859375
4518		0.000000
4519		-1.953125
4520		1.953125
4521		0.000000
4522		3.906250
4523		1.953125
4524		7.812500
4525		3.906250
4526		9.765625
4527		7.812500
4528		11.718750
4529		9.765625
4530		13.671875
4531		11.718750
4532		17.578125
4533		15.625000
4534		19.531250
4535		17.578125
4536		21.484375
4537		19.531250
4538		23.437500
4539		21.484375
4540		27.343750
4541		25.390625
4542		29.296875
4543		27.343750
4544		31.250000
4545		29.296875
4546		33.203125
4547		33.203125
4548		37.109375
4549		35.156250
4550		39.062500
4551		37.109375
4552		41.015625
4553		39.062500
4554		42.968750
4555		41.015625
4556		46.875000
4557		44.921875
4558		48.828125
4559		46.875000
4560		50.781250
4561		46.875000
4562		52.734375
4563		50.781250
4564		54.687500
4565		52.734375
4566		56.640625
4567		54.687500
4568		58.593750
4569		56.640625
4570		60.546875
4571		58.593750
4572		62.500000
4573		60.546875
4574		64.453125
4575		62.500000
4576		66.406250
4577		64.453125
4578		68.359375
4579		66.406250
4580		70.312500
4581		68.359375
4582		72.265625
4583		70.312500
4584		74.218750
4585		72.265625
4586		76.171875
4587		74.218750
4588		78.125000
4589		74.218750
4590		78.125000
4591		78.125000
4592		80.078125
4593		78.125000
4594		82.031250
4595		80.078125
4596		83.984375
4597		82.031250
4598		85.937500
4599		82.031250
4600		87.890625
4601		83.984375
4602		87.890625
4603		85.937500
4604		89.843750
4605		85.937500
4606		91.796875
4607		87.890625
4608		91.796875
4609		89.843750
4610		93.750000
4611		89.843750
4612		93.750000
4613		89.843750
4614		93.750000
4615		91.796875
4616		95.703125
4617		91.796875
4618		95.703125
4619		93.750000
4620		95.703125
4621		95.703125
4622		97.656250
4623		93.750000
4624		99.609375
4625		95.703125
4626		99.609375
4627		97.656250
4628		99.609375
4629		97.656250
4630		101.562500
4631		97.656250
4632		101.562500
4633		99.609375
4634		101.562500
4635		97.656250
4636		101.562500
4637		99.609375
4638		101.562500
4639		99.609375
4640		103.515625
4641		99.609375
4642		103.515625
4643		99.609375
4644		103.515625
4645		99.609375
4646		103.515625
4647		99.609375
4648		103.515625
4649		99.609375
4650		103.515625
4651		99.609375
4652		103.515625
4653		99.609375
4654		103.515625
4655		99.609375
4656		103.515625
4657		99.609375
4658		103.515625
4659		99.609375
4660		103.515625
4661		99.609375
4662		101.562500
4663		99.609375
4664		101.562500
4665		97.656250
4666		101.562500
4667		97.656250
4668		101.562500
4669		97.656250
4670		99.609375
4671		97.656250
4672		99.609375
4673		95.703125
4674		99.609375
4675		95.703125
4676		97.656250
4677		95.703125
4678		97.656250
4679		93.750000
4680		97.656250
4681		93.750000
4682		95.703125
4683		91.796875
4684		95.703125
4685		89.843750
4686		93.750000
4687		89.843750
4688		91.796875
4689		89.843750
4690		91.796875
4691		87.890625
4692		91.796875
4693		85.937500
4694		89.843750
4695		85.937500
4696		87.890625
4697		83.984375
4698		87.890625
4699		82.031250
4700		85.937500
4701		80.078125
4702		83.984375
4703		80.078125
4704		82.031250
4705		78.125000
4706		82.031250
4707		76.171875
4708		80.078125
4709		74.218750
4710		78.125000
4711		72.265625
4712		76.171875
4713		70.312500
4714		74.218750
4715		70.312500
4716		74.218750
4717		68.359375
4718		72.265625
4719		66.406250
4720		70.312500
4721		64.453125
4722		68.359375
4723		62.500000
4724		66.406250
4725		58.593750
4726		64.453125
4727		58.593750
4728		62.500000
4729		56.640625
4730		60.546875
4731		52.734375
4732		56.640625
4733		50.781250
4734		56.640625
4735		48.828125
4736		52.734375
4737		46.875000
4738		50.781250
4739		44.921875
4740		48.828125
4741		42.968750
4742		46.875000
4743		39.062500
4744		44.921875
4745		37.109375
4746		42.968750
4747		35.156250
4748		41.015625
4749		33.203125
4750		37.109375
4751		29.296875
4752		35.156250
4753		27.343750
4754		33.203125
4755		25.390625
4756		29.296875
4757		23.437500
4758		27.343750
4759		21.484375
4760		25.390625
4761		17.578125
4762		23.437500
4763		15.625000
4764		19.531250
4765		13.671875
4766		17.578125
4767		9.765625
4768		13.671875
4769		7.812500
4770		13.671875
4771		5.859375
4772		9.765625
4773		1.953125
4774		7.812500
4775		0.000000
4776		3.906250
4777		-1.953125
4778		1.953125
4779		-5.859375
4780		0.000000
4781		-7.812500
4782		-3.906250
4783		-9.765625
4784		-5.859375
4785		-11.718750
4786		-7.812500
4787		-15.625000
4788		-11.718750
4789		-17.578125
4790		-13.671875
4791		-19.531250
4792		-15.625000
4793		-23.437500
4794		-17.578125
4795		-25.390625
4796		-21.484375
4797		-27.343750
4798		-23.437500
4799		-29.296875
4800		-25.390625
4801		-33.203125
4802		-27.343750
4803		-35.156250
4804		-29.296875
4805		-37.109375
4806		-33.203125
4807		-39.062500
4808		-35.156250
4809		-42.968750
4810		-37.109375
4811		-44.921875
4812		-39.062500
4813		-46.875000
4814		-41.015625
4815		-48.828125
4816		-44.921875
4817		-50.781250
4818		-46.875000
4819		-52.734375
4820		-48.828125
4821		-54.687500
4822		-50.781250
4823		-56.640625
4824		-52.734375
4825		-58.593750
4826		-54.687500
4827		-60.546875
4828		-56.640625
4829		-62.500000
4830		-58.593750
4831		-64.453125
4832		-60.546875
4833		-66.406250
4834		-62.500000
4835		-68.359375
4836		-64.453125
4837		-68.359375
4838		-66.406250
4839		-70.312500
4840		-66.406250
4841		-72.265625
4842		-68.359375
4843		-74.218750
4844		-70.312500
4845		-76.171875
4846		-72.265625
4847		-76.171875
4848		-74.218750
4849		-78.125000
4850		-74.218750
4851		-78.125000
4852		-76.171875
4853		-80.078125
4854		-76.171875
4855		-80.078125
4856		-78.125000
4857		-82.031250
4858		-78.125000
4859		-83.984375
4860		-80.078125
4861		-83.984375
4862		-80.078125
4863		-83.984375
4864		-82.031250
4865		-85.937500
4866		-82.031250
4867		-85.937500
4868		-83.984375
4869		-87.890625
4870		-83.984375
4871		-87.890625
4872		-83.984375
4873		-87.890625
4874		-85.937500
4875		-87.890625
4876		-83.984375
4877		-87.890625
4878		-85.937500
4879		-87.890625
4880		-85.937500
4881		-87.890625
4882		-85.937500
4883		-87.890625
4884		-85.937500
4885		-89.843750
4886		-85.937500
4887		-89.843750
4888		-85.937500
4889		-87.890625
4890		-85.937500
4891		-87.890625
4892		-85.937500
4893		-87.890625
4894		-85.937500
4895		-87.890625
4896		-83.984375
4897		-87.890625
4898		-83.984375
4899		-85.937500
4900		-83.984375
4901		-85.937500
4902		-83.984375
4903		-85.937500
4904		-82.031250
4905		-83.984375
4906		-82.031250
4907		-83.984375
4908		-80.078125
4909		-82.031250
4910		-78.125000
4911		-82.031250
4912		-80.078125
4913		-82.031250
4914		-78.125000
4915		-80.078125
4916		-76.171875
4917		-80.078125
4918		-74.218750
4919		-78.125000
4920		-74.218750
4921		-76.171875
4922		-72.265625
4923		-74.218750
4924		-72.265625
4925		-74.218750
4926		-70.312500
4927		-72.265625
4928		-68.359375
4929		-70.312500
4930		-66.406250
4931		-68.359375
4932		-64.453125
4933		-66.406250
4934		-62.500000
4935		-64.453125
4936		-62.500000
4937		-64.453125
4938		-60.546875
4939		-62.500000
4940		-58.593750
4941		-58.593750
4942		-54.687500
4943		-58.593750
4944		-54.687500
4945		-56.640625
4946		-50.781250
4947		-52.734375
4948		-48.828125
4949		-50.781250
4950		-46.875000
4951		-48.828125
4952		-44.921875
4953		-46.875000
4954		-42.968750
4955		-44.921875
4956		-41.015625
4957		-42.968750
4958		-39.062500
4959		-41.015625
4960		-37.109375
4961		-39.062500
4962		-33.203125
4963		-35.156250
4964		-31.250000
4965		-33.203125
4966		-29.296875
4967		-31.250000
4968		-27.343750
4969		-29.296875
4970		-23.437500
4971		-27.343750
4972		-21.484375
4973		-23.437500
4974		-19.531250
4975		-21.484375
4976		-17.578125
4977		-19.531250
4978		-13.671875
4979		-15.625000
4980		-11.718750
4981		-13.671875
4982		-9.765625
4983		-11.718750
4984		-7.812500
4985		-9.765625
4986		-3.906250
4987		-5.859375
4988		-1.953125
4989		-3.906250
4990		0.000000
4991		-1.953125
4992		5.859375
4993		1.953125
4994		5.859375
4995		3.906250
4996		7.812500
4997		5.859375
4998		11.718750
4999		9.765625
5000		13.671875
5001		11.718750
5002		15.625000
5003		13.671875
5004		19.531250
5005		17.578125
5006		21.484375
5007		19.531250
5008		23.437500
5009		21.484375
5010		25.390625
5011		23.437500
5012		27.343750
5013		25.390625
5014		31.250000
5015		29.296875
5016		33.203125
5017		31.250000
5018		35.156250
5019		33.203125
5020		37.109375
5021		35.156250
5022		39.062500
5023		39.062500
5024		42.968750
5025		41.015625
5026		46.875000
5027		42.968750
5028		46.875000
5029		44.921875
5030		50.781250
5031		46.875000
5032		50.781250
5033		48.828125
5034		54.687500
5035		50.781250
5036		54.687500
5037		52.734375
5038		58.593750
5039		56.640625
5040		58.593750
5041		58.593750
5042		62.500000
5043		58.593750
5044		64.453125
5045		62.500000
5046		66.406250
5047		64.453125
5048		66.406250
5049		66.406250
5050		70.312500
5051		68.359375
5052		72.265625
5053		70.312500
5054		74.218750
5055		70.312500
5056		74.218750
5057		72.265625
5058		76.171875
5059		74.218750
5060		78.125000
5061		76.171875
5062		80.078125
5063		78.125000
5064		82.031250
5065		80.078125
5066		82.031250
5067		80.078125
5068		83.984375
5069		82.031250
5070		85.937500
5071		83.984375
5072		85.937500
5073		85.937500
5074		87.890625
5075		85.937500
5076		89.843750
5077		85.937500
5078		89.843750
5079		89.843750
5080		91.796875
5081		89.843750
5082		93.750000
5083		91.796875
5084		93.750000
5085		91.796875
5086		95.703125
5087		93.750000
5088		97.656250
5089		93.750000
5090		97.656250
5091		95.703125
5092		97.656250
5093		95.703125
5094		99.609375
5095		95.703125
5096		99.609375
5097		97.656250
5098		99.609375
5099		97.656250
5100		101.562500
5101		97.656250
5102		101.562500
5103		99.609375
5104		101.562500
5105		97.656250
5106		103.515625
5107		99.609375
5108		103.515625
5109		99.609375
5110		103.515625
5111		99.609375
5112		103.515625
5113		101.562500
5114		103.515625
5115		101.562500
5116		105.468750
5117		101.562500
5118		103.515625
5119		101.562500
5120		103.515625
5121		101.562500
5122		105.468750
5123		101.562500
5124		103.515625
5125		101.562500
5126		103.515625
5127		99.609375
5128		103.515625
5129		99.609375
5130		103.515625
5131		99.609375
5132		103.515625
5133		99.609375
5134		103.515625
5135		99.609375
5136		103.515625
5137		99.609375
5138		101.562500
5139		97.656250
5140		101.562500
5141		97.656250
5142		101.562500
5143		97.656250
5144		101.562500
5145		97.656250
5146		99.609375
5147		95.703125
5148		99.609375
5149		95.703125
5150		97.656250
5151		93.750000
5152		97.656250
5153		93.750000
5154		97.656250
5155		91.796875
5156		95.703125
5157		91.796875
5158		95.703125
5159		89.843750
5160		93.750000
5161		89.843750
5162		93.750000
5163		87.890625
5164		91.796875
5165		87.890625
5166		91.796875
5167		85.937500
5168		89.843750
5169		83.984375
5170		87.890625
5171		82.031250
5172		85.937500
5173		82.031250
5174		85.937500
5175		80.078125
5176		83.984375
5177		78.125000
5178		82.031250
5179		76.171875
5180		80.078125
5181		76.171875
5182		78.125000
5183		74.218750
5184		78.125000
5185		72.265625
5186		76.171875
5187		70.312500
5188		74.218750
5189		68.359375
5190		72.265625
5191		66.406250
5192		70.312500
5193		64.453125
5194		68.359375
5195		62.500000
5196		66.406250
5197		60.546875
5198		64.453125
5199		58.593750
5200		62.500000
5201		54.687500
5202		60.546875
5203		54.687500
5204		58.593750
5205		50.781250
5206		56.640625
5207		50.781250
5208		52.734375
5209		46.875000
5210		52.734375
5211		44.921875
5212		48.828125
5213		42.968750
5214		46.875000
5215		41.015625
5216		44.921875
5217		39.062500
5218		42.968750
5219		35.156250
5220		41.015625
5221		33.203125
5222		37.109375
5223		31.250000
5224		35.156250
5225		27.343750
5226		33.203125
5227		25.390625
5228		29.296875
5229		23.437500
5230		27.343750
5231		21.484375
5232		25.390625
5233		19.531250
5234		23.437500
5235		15.625000
5236		21.484375
5237		13.671875
5238		17.578125
5239		9.765625
5240		15.625000
5241		7.812500
5242		11.718750
5243		5.859375
5244		9.765625
5245		3.906250
5246		7.812500
5247		0.000000
5248		5.859375
5249		-1.953125
5250		1.953125
5251		-3.906250
5252		0.000000
5253		-7.812500
5254		-3.906250
5255		-9.765625
5256		-5.859375
5257		-11.718750
5258		-7.812500
5259		-13.671875
5260		-9.765625
5261		-17.578125
5262		-13.671875
5263		-19.531250
5264		-15.625000
5265		-21.484375
5266		-17.578125
5267		-25.390625
5268		-19.531250
5269		-27.343750
5270		-23.437500
5271		-29.296875
5272		-25.390625
5273		-31.250000
5274		-27.343750
5275		-35.156250
5276		-29.296875
5277		-37.109375
5278		-33.203125
5279		-39.062500
5280		-35.156250
5281		-41.015625
5282		-37.109375
5283		-44.921875
5284		-39.062500
5285		-44.921875
5286		-41.015625
5287		-48.828125
5288		-44.921875
5289		-50.781250
5290		-46.875000
5291		-52.734375
5292		-48.828125
5293		-54.687500
5294		-50.781250
5295		-56.640625
5296		-52.734375
5297		-58.593750
5298		-54.687500
5299		-60.546875
5300		-54.687500
5301		-62.500000
5302		-58.593750
5303		-64.453125
5304		-60.546875
5305		-66.406250
5306		-62.500000
5307		-68.359375
5308		-62.500000
5309		-68.359375
5310		-66.406250
5311		-70.312500
5312		-66.406250
5313		-72.265625
5314		-68.359375
5315		-74.218750
5316		-70.312500
5317		-74.218750
5318		-72.265625
5319		-76.171875
5320		-72.265625
5321		-78.125000
5322		-74.218750
5323		-80.078125
5324		-74.218750
5325		-80.078125
5326		-76.171875
5327		-80.078125
5328		-78.125000
5329		-82.031250
5330		-78.125000
5331		-83.984375
5332		-80.078125
5333		-83.984375
5334		-80.078125
5335		-83.984375
5336		-82.031250
5337		-85.937500
5338		-82.031250
5339		-85.937500
5340		-82.031250
5341		-85.937500
5342		-82.031250
5343		-87.890625
5344		-83.984375
5345		-87.890625
5346		-83.984375
5347		-87.890625
5348		-83.984375
5349		-87.890625
5350		-83.984375
5351		-87.890625
5352		-85.937500
5353		-87.890625
5354		-85.937500
5355		-87.890625
5356		-85.937500
5357		-89.843750
5358		-85.937500
5359		-87.890625
5360		-85.937500
5361		-87.890625
5362		-83.984375
5363		-87.890625
5364		-83.984375
5365		-87.890625
5366		-83.984375
5367		-87.890625
5368		-83.984375
5369		-87.890625
5370		-83.984375
5371		-85.937500
5372		-82.031250
5373		-85.937500
5374		-82.031250
5375		-83.984375
5376		-82.031250
5377		-83.984375
5378		-82.031250
5379		-83.984375
5380		-80.078125
5381		-82.031250
5382		-80.078125
5383		-82.031250
5384		-78.125000
5385		-80.078125
5386		-78.125000
5387		-80.078125
5388		-76.171875
5389		-78.125000
5390		-74.218750
5391		-78.125000
5392		-74.218750
5393		-76.171875
5394		-72.265625
5395		-74.218750
5396		-70.312500
5397		-72.265625
5398		-68.359375
5399		-70.312500
5400		-66.406250
5401		-70.312500
5402		-66.406250
5403		-68.359375
5404		-64.453125
5405		-66.406250
5406		-62.500000
5407		-64.453125
5408		-60.546875
5409		-62.500000
5410		-58.593750
5411		-60.546875
5412		-56.640625
5413		-60.546875
5414		-54.687500
5415		-56.640625
5416		-52.734375
5417		-54.687500
5418		-50.781250
5419		-52.734375
5420		-48.828125
5421		-50.781250
5422		-46.875000
5423		-48.828125
5424		-44.921875
5425		-46.875000
5426		-42.968750
5427		-44.921875
5428		-41.015625
5429		-42.968750
5430		-37.109375
5431		-41.015625
5432		-35.156250
5433		-37.109375
5434		-33.203125
5435		-35.156250
5436		-31.250000
5437		-33.203125
5438		-29.296875
5439		-31.250000
5440		-25.390625
5441		-27.343750
5442		-23.437500
5443		-25.390625
5444		-21.484375
5445		-23.437500
5446		-17.578125
5447		-21.484375
5448		-15.625000
5449		-17.578125
5450		-13.671875
5451		-15.625000
5452		-9.765625
5453		-13.671875
5454		-9.765625
5455		-9.765625
5456		-5.859375
5457		-7.812500
5458		-3.906250
5459		-5.859375
5460		-1.953125
5461		-3.906250
5462		1.953125
5463		-1.953125
5464		3.906250
5465		1.953125
5466		5.859375
5467		3.906250
5468		9.765625
5469		7.812500
5470		11.718750
5471		9.765625
5472		13.671875
5473		11.718750
5474		15.625000
5475		15.625000
5476		19.531250
5477		17.578125
5478		21.484375
5479		19.531250
5480		25.390625
5481		21.484375
5482		27.343750
5483		23.437500
5484		29.296875
5485		27.343750
5486		31.250000
5487		29.296875
5488		35.156250
5489		33.203125
5490		37.109375
5491		33.203125
5492		39.062500
5493		37.109375
5494		41.015625
5495		39.062500
5496		42.968750
5497		41.015625
5498		46.875000
5499		42.968750
5500		48.828125
5501		44.921875
5502		50.781250
5503		46.875000
5504		52.734375
5505		50.781250
5506		54.687500
5507		52.734375
5508		56.640625
5509		52.734375
5510		58.593750
5511		56.640625
5512		60.546875
5513		58.593750
5514		62.500000
5515		60.546875
5516		64.453125
5517		62.500000
5518		66.406250
5519		64.453125
5520		68.359375
5521		66.406250
5522		70.312500
5523		68.359375
5524		72.265625
5525		70.312500
5526		74.218750
5527		72.265625
5528		74.218750
5529		74.218750
5530		78.125000
5531		76.171875
5532		80.078125
5533		76.171875
5534		80.078125
5535		78.125000
5536		82.031250
5537		80.078125
5538		83.984375
5539		80.078125
5540		85.937500
5541		82.031250
5542		87.890625
5543		83.984375
5544		87.890625
5545		85.937500
5546		87.890625
5547		85.937500
5548		91.796875
5549		87.890625
5550		91.796875
5551		87.890625
5552		93.750000
5553		89.843750
5554		93.750000
5555		89.843750
5556		95.703125
5557		91.796875
5558		95.703125
5559		91.796875
5560		95.703125
5561		93.750000
5562		97.656250
5563		93.750000
5564		99.609375
5565		93.750000
5566		99.609375
5567		95.703125
5568		99.609375
5569		97.656250
5570		101.562500
5571		97.656250
5572		101.562500
5573		97.656250
5574		101.562500
5575		97.656250
5576		103.515625
5577		99.609375
5578		101.562500
5579		99.609375
5580		103.515625
5581		99.609375
5582		105.468750
5583		99.609375
5584		105.468750
5585		99.609375
5586		105.468750
5587		99.609375
5588		105.468750
5589		99.609375
5590		105.468750
5591		99.609375
5592		105.468750
5593		99.609375
5594		105.468750
5595		101.562500
5596		103.515625
5597		99.609375
5598		105.468750
5599		99.609375
5600		105.468750
5601		99.609375
5602		103.515625
5603		99.609375
5604		103.515625
5605		99.609375
5606		103.515625
5607		99.609375
5608		103.515625
5609		99.609375
5610		103.515625
5611		99.609375
5612		101.562500
5613		97.656250
5614		101.562500
5615		97.656250
5616		99.609375
5617		95.703125
5618		99.609375
5619		95.703125
5620		99.609375
5621		95.703125
5622		97.656250
5623		95.703125
5624		97.656250
5625		93.750000
5626		97.656250
5627		91.796875
5628		95.703125
5629		91.796875
5630		93.750000
5631		89.843750
5632		93.750000
5633		89.843750
5634		91.796875
5635		87.890625
5636		91.796875
5637		87.890625
5638		89.843750
5639		85.937500
5640		87.890625
5641		83.984375
5642		87.890625
5643		82.031250
5644		87.890625
5645		82.031250
5646		83.984375
5647		80.078125
5648		83.984375
5649		78.125000
5650		82.031250
5651		76.171875
5652		80.078125
5653		76.171875
5654		78.125000
5655		74.218750
5656		76.171875
5657		72.265625
5658		74.218750
5659		70.312500
5660		74.218750
5661		68.359375
5662		72.265625
5663		66.406250
5664		70.312500
5665		64.453125
5666		68.359375
5667		62.500000
5668		66.406250
5669		60.546875
5670		64.453125
5671		58.593750
5672		62.500000
5673		54.687500
5674		58.593750
5675		54.687500
5676		58.593750
5677		52.734375
5678		54.687500
5679		48.828125
5680		52.734375
5681		46.875000
5682		50.781250
5683		44.921875
5684		48.828125
5685		42.968750
5686		46.875000
5687		41.015625
5688		44.921875
5689		37.109375
5690		41.015625
5691		35.156250
5692		39.062500
5693		33.203125
5694		37.109375
5695		31.250000
5696		35.156250
5697		29.296875
5698		33.203125
5699		25.390625
5700		29.296875
5701		23.437500
5702		27.343750
5703		21.484375
5704		25.390625
5705		17.578125
5706		23.437500
5707		15.625000
5708		19.531250
5709		13.671875
5710		17.578125
5711		9.765625
5712		13.671875
5713		7.812500
5714		11.718750
5715		3.906250
5716		11.718750
5717		0.000000
5718		9.765625
5719		-1.953125
5720		5.859375
5721		-1.953125
5722		1.953125
5723		-5.859375
5724		-1.953125
5725		-7.812500
5726		-3.906250
5727		-9.765625
5728		-5.859375
5729		-11.718750
5730		-7.812500
5731		-17.578125
5732		-9.765625
5733		-19.531250
5734		-11.718750
5735		-23.437500
5736		-13.671875
5737		-23.437500
5738		-15.625000
5739		-25.390625
5740		-21.484375
5741		-27.343750
5742		-23.437500
5743		-29.296875
5744		-25.390625
5745		-33.203125
5746		-27.343750
5747		-35.156250
5748		-31.250000
5749		-39.062500
5750		-31.250000
5751		-41.015625
5752		-33.203125
5753		-44.921875
5754		-35.156250
5755		-44.921875
5756		-39.062500
5757		-46.875000
5758		-41.015625
5759		-48.828125
5760		-44.921875
5761		-50.781250
5762		-46.875000
5763		-52.734375
5764		-48.828125
5765		-58.593750
5766		-48.828125
5767		-58.593750
5768		-50.781250
5769		-60.546875
5770		-52.734375
5771		-60.546875
5772		-54.687500
5773		-62.500000
5774		-58.593750
5775		-64.453125
5776		-60.546875
5777		-66.406250
5778		-62.500000
5779		-68.359375
5780		-64.453125
5781		-68.359375
5782		-64.453125
5783		-72.265625
5784		-64.453125
5785		-74.218750
5786		-64.453125
5787		-76.171875
5788		-66.406250
5789		-74.218750
5790		-72.265625
5791		-76.171875
5792		-72.265625
5793		-78.125000
5794		-74.218750
5795		-78.125000
5796		-76.171875
5797		-80.078125
5798		-76.171875
5799		-83.984375
5800		-76.171875
5801		-85.937500
5802		-76.171875
5803		-85.937500
5804		-76.171875
5805		-83.984375
5806		-80.078125
5807		-83.984375
5808		-82.031250
5809		-85.937500
5810		-82.031250
5811		-85.937500
5812		-83.984375
5813		-85.937500
5814		-83.984375
5815		-89.843750
5816		-82.031250
5817		-89.843750
5818		-82.031250
5819		-91.796875
5820		-82.031250
5821		-91.796875
5822		-82.031250
5823		-87.890625
5824		-85.937500
5825		-87.890625
5826		-85.937500
5827		-89.843750
5828		-85.937500
5829		-87.890625
5830		-85.937500
5831		-87.890625
5832		-85.937500
5833		-91.796875
5834		-82.031250
5835		-89.843750
5836		-82.031250
5837		-89.843750
5838		-82.031250
5839		-87.890625
5840		-83.984375
5841		-85.937500
5842		-83.984375
5843		-85.937500
5844		-83.984375
5845		-85.937500
5846		-82.031250
5847		-83.984375
5848		-82.031250
5849		-85.937500
5850		-76.171875
5851		-85.937500
5852		-76.171875
5853		-85.937500
5854		-76.171875
5855		-83.984375
5856		-76.171875
5857		-80.078125
5858		-78.125000
5859		-80.078125
5860		-76.171875
5861		-78.125000
5862		-74.218750
5863		-76.171875
5864		-74.218750
5865		-74.218750
5866		-72.265625
5867		-76.171875
5868		-68.359375
5869		-74.218750
5870		-66.406250
5871		-74.218750
5872		-64.453125
5873		-70.312500
5874		-64.453125
5875		-68.359375
5876		-64.453125
5877		-66.406250
5878		-62.500000
5879		-64.453125
5880		-60.546875
5881		-62.500000
5882		-58.593750
5883		-62.500000
5884		-52.734375
5885		-60.546875
5886		-52.734375
5887		-58.593750
5888		-50.781250
5889		-54.687500
5890		-50.781250
5891		-52.734375
5892		-48.828125
5893		-50.781250
5894		-46.875000
5895		-48.828125
5896		-44.921875
5897		-46.875000
5898		-42.968750
5899		-42.968750
5900		-41.015625
5901		-41.015625
5902		-35.156250
5903		-41.015625
5904		-33.203125
5905		-37.109375
5906		-33.203125
5907		-35.156250
5908		-31.250000
5909		-33.203125
5910		-29.296875
5911		-29.296875
5912		-25.390625
5913		-27.343750
5914		-23.437500
5915		-25.390625
5916		-21.484375
5917		-23.437500
5918		-17.578125
5919		-21.484375
5920		-13.671875
5921		-19.531250
5922		-13.671875
5923		-15.625000
5924		-11.718750
5925		-11.718750
5926		-7.812500
5927		-9.765625
5928		-5.859375
5929		-7.812500
5930		-3.906250
5931		-3.906250
5932		0.000000
5933		-3.906250
5934		1.953125
5935		0.000000
5936		5.859375
5937		1.953125
5938		7.812500
5939		5.859375
5940		9.765625
5941		7.812500
5942		11.718750
5943		9.765625
5944		15.625000
5945		13.671875
5946		17.578125
5947		15.625000
5948		19.531250
5949		17.578125
5950		21.484375
5951		21.484375
5952		25.390625
5953		23.437500
5954		27.343750
5955		25.390625
5956		29.296875
5957		27.343750
5958		31.250000
5959		31.250000
5960		35.156250
5961		33.203125
5962		37.109375
5963		35.156250
5964		39.062500
5965		37.109375
5966		41.015625
5967		39.062500
5968		42.968750
5969		42.968750
5970		44.921875
5971		44.921875
5972		48.828125
5973		46.875000
5974		50.781250
5975		48.828125
5976		52.734375
5977		50.781250
5978		54.687500
5979		52.734375
5980		56.640625
5981		54.687500
5982		58.593750
5983		56.640625
5984		62.500000
5985		58.593750
5986		62.500000
5987		60.546875
5988		64.453125
5989		62.500000
5990		66.406250
5991		64.453125
5992		68.359375
5993		66.406250
5994		70.312500
5995		68.359375
5996		72.265625
5997		70.312500
5998		74.218750
5999		72.265625
6000		76.171875
6001		74.218750
6002		78.125000
6003		76.171875
6004		78.125000
6005		78.125000
6006		80.078125
6007		78.125000
6008		82.031250
6009		80.078125
6010		83.984375
6011		82.031250
6012		83.984375
6013		83.984375
6014		87.890625
6015		83.984375
6016		87.890625
6017		85.937500
6018		89.843750
6019		87.890625
6020		91.796875
6021		87.890625
6022		91.796875
6023		89.843750
6024		93.750000
6025		89.843750
6026		93.750000
6027		91.796875
6028		95.703125
6029		93.750000
6030		95.703125
6031		93.750000
6032		95.703125
6033		95.703125
6034		97.656250
6035		93.750000
6036		99.609375
6037		95.703125
6038		99.609375
6039		97.656250
6040		99.609375
6041		95.703125
6042		101.562500
6043		97.656250
6044		101.562500
6045		99.609375
6046		101.562500
6047		99.609375
6048		101.562500
6049		99.609375
6050		103.515625
6051		99.609375
6052		103.515625
6053		99.609375
6054		103.515625
6055		101.562500
6056		103.515625
6057		101.562500
6058		103.515625
6059		101.562500
6060		103.515625
6061		101.562500
6062		103.515625
6063		101.562500
6064		103.515625
6065		101.562500
6066		103.515625
6067		99.609375
6068		105.468750
6069		101.562500
6070		103.515625
6071		101.562500
6072		103.515625
6073		99.609375
6074		103.515625
6075		99.609375
6076		103.515625
6077		99.609375
6078		103.515625
6079		99.609375
6080		101.562500
6081		99.609375
6082		101.562500
6083		97.656250
6084		101.562500
6085		97.656250
6086		101.562500
6087		97.656250
6088		101.562500
6089		97.656250
6090		99.609375
6091		95.703125
6092		99.609375
6093		95.703125
6094		97.656250
6095		93.750000
6096		97.656250
6097		93.750000
6098		95.703125
6099		91.796875
6100		95.703125
6101		89.843750
6102		95.703125
6103		89.843750
6104		93.750000
6105		89.843750
6106		91.796875
6107		87.890625
6108		91.796875
6109		85.937500
6110		89.843750
6111		85.937500
6112		87.890625
6113		83.984375
6114		87.890625
6115		82.031250
6116		85.937500
6117		80.078125
6118		83.984375
6119		80.078125
6120		85.937500
6121		78.125000
6122		82.031250
6123		76.171875
6124		80.078125
6125		74.218750
6126		78.125000
6127		72.265625
6128		78.125000
6129		70.312500
6130		74.218750
6131		68.359375
6132		72.265625
6133		68.359375
6134		72.265625
6135		64.453125
6136		68.359375
6137		62.500000
6138		66.406250
6139		62.500000
6140		64.453125
6141		58.593750
6142		64.453125
6143		56.640625
6144		62.500000
6145		54.687500
6146		58.593750
6147		52.734375
6148		56.640625
6149		50.781250
6150		54.687500
6151		46.875000
6152		52.734375
6153		44.921875
6154		50.781250
6155		44.921875
6156		48.828125
6157		41.015625
6158		44.921875
6159		39.062500
6160		42.968750
6161		37.109375
6162		41.015625
6163		35.156250
6164		39.062500
6165		31.250000
6166		37.109375
6167		29.296875
6168		33.203125
6169		27.343750
6170		33.203125
6171		25.390625
6172		29.296875
6173		21.484375
6174		27.343750
6175		19.531250
6176		23.437500
6177		17.578125
6178		23.437500
6179		15.625000
6180		19.531250
6181		11.718750
6182		15.625000
6183		9.765625
6184		13.671875
6185		7.812500
6186		11.718750
6187		3.906250
6188		9.765625
6189		1.953125
6190		5.859375
6191		0.000000
6192		3.906250
6193		-3.906250
6194		0.000000
6195		-5.859375
6196		-1.953125
6197		-7.812500
6198		-3.906250
6199		-11.718750
6200		-5.859375
6201		-13.671875
6202		-9.765625
6203		-15.625000
6204		-11.718750
6205		-17.578125
6206		-13.671875
6207		-21.484375
6208		-17.578125
6209		-23.437500
6210		-19.531250
6211		-25.390625
6212		-21.484375
6213		-27.343750
6214		-23.437500
6215		-31.250000
6216		-27.343750
6217		-33.203125
6218		-29.296875
6219		-35.156250
6220		-31.250000
6221		-37.109375
6222		-33.203125
6223		-41.015625
6224		-37.109375
6225		-42.968750
6226		-39.062500
6227		-44.921875
6228		-41.015625
6229		-46.875000
6230		-42.968750
6231		-48.828125
6232		-44.921875
6233		-50.781250
6234		-46.875000
6235		-52.734375
6236		-48.828125
6237		-54.687500
6238		-50.781250
6239		-56.640625
6240		-54.687500
6241		-58.593750
6242		-56.640625
6243		-60.546875
6244		-58.593750
6245		-62.500000
6246		-58.593750
6247		-64.453125
6248		-60.546875
6249		-66.406250
6250		-62.500000
6251		-68.359375
6252		-64.453125
6253		-70.312500
6254		-66.406250
6255		-70.312500
6256		-68.359375
6257		-72.265625
6258		-70.312500
6259		-74.218750
6260		-70.312500
6261		-76.171875
6262		-72.265625
6263		-76.171875
6264		-74.218750
6265		-78.125000
6266		-74.218750
6267		-78.125000
6268		-76.171875
6269		-80.078125
6270		-78.125000
6271		-82.031250
6272		-78.125000
6273		-82.031250
6274		-80.078125
6275		-83.984375
6276		-80.078125
6277		-83.984375
6278		-82.031250
6279		-83.984375
6280		-82.031250
6281		-85.937500
6282		-83.984375
6283		-85.937500
6284		-83.984375
6285		-85.937500
6286		-83.984375
6287		-87.890625
6288		-83.984375
6289		-87.890625
6290		-85.937500
6291		-87.890625
6292		-85.937500
6293		-87.890625
6294		-85.937500
6295		-87.890625
6296		-85.937500
6297		-87.890625
6298		-85.937500
6299		-87.890625
6300		-85.937500
6301		-87.890625
6302		-85.937500
6303		-89.843750
6304		-85.937500
6305		-87.890625
6306		-85.937500
6307		-87.890625
6308		-85.937500
6309		-87.890625
6310		-85.937500
6311		-87.890625
6312		-83.984375
6313		-85.937500
6314		-83.984375
6315		-85.937500
6316		-83.984375
6317		-85.937500
6318		-82.031250
6319		-85.937500
6320		-80.078125
6321		-83.984375
6322		-82.031250
6323		-83.984375
6324		-80.078125
6325		-82.031250
6326		-80.078125
6327		-82.031250
6328		-78.125000
6329		-80.078125
6330		-78.125000
6331		-78.125000
6332		-76.171875
6333		-78.125000
6334		-74.218750
6335		-76.171875
6336		-74.218750
6337		-76.171875
6338		-70.312500
6339		-74.218750
6340		-70.312500
6341		-72.265625
6342		-68.359375
6343		-70.312500
6344		-68.359375
6345		-68.359375
6346		-66.406250
6347		-66.406250
6348		-64.453125
6349		-66.406250
6350		-62.500000
6351		-64.453125
6352		-60.546875
6353		-62.500000
6354		-56.640625
6355		-60.546875
6356		-54.687500
6357		-58.593750
6358		-54.687500
6359		-56.640625
6360		-52.734375
6361		-54.687500
6362		-50.781250
6363		-52.734375
6364		-48.828125
6365		-50.781250
6366		-46.875000
6367		-48.828125
6368		-42.968750
6369		-44.921875
6370		-42.968750
6371		-44.921875
6372		-39.062500
6373		-42.968750
6374		-37.109375
6375		-39.062500
6376		-35.156250
6377		-37.109375
6378		-33.203125
6379		-35.156250
6380		-31.250000
6381		-31.250000
6382		-27.343750
6383		-29.296875
6384		-25.390625
6385		-27.343750
6386		-23.437500
6387		-25.390625
6388		-19.531250
6389		-23.437500
6390		-17.578125
6391		-19.531250
6392		-15.625000
6393		-17.578125
6394		-13.671875
6395		-13.671875
6396		-9.765625
6397		-11.718750
6398		-7.812500
6399		-9.765625
6400		-5.859375
6401		-7.812500
6402		-1.953125
6403		-3.906250
6404		0.000000
6405		-3.906250
6406		3.906250
6407		0.000000
6408		5.859375
6409		3.906250
6410		7.812500
6411		5.859375
6412		9.765625
6413		7.812500
6414		11.718750
6415		9.765625
6416		15.625000
6417		13.671875
6418		17.578125
6419		15.625000
6420		19.531250
6421		17.578125
6422		23.437500
6423		19.531250
6424		25.390625
6425		23.437500
6426		27.343750
6427		25.390625
6428		29.296875
6429		27.343750
6430		31.250000
6431		31.250000
6432		35.156250
6433		33.203125
6434		37.109375
6435		35.156250
6436		39.062500
6437		37.109375
6438		42.968750
6439		39.062500
6440		44.921875
6441		42.968750
6442		46.875000
6443		44.921875
6444		48.828125
6445		46.875000
6446		50.781250
6447		48.828125
6448		52.734375
6449		50.781250
6450		54.687500
6451		52.734375
6452		56.640625
6453		54.687500
6454		58.593750
6455		56.640625
6456		62.500000
6457		58.593750
6458		62.500000
6459		60.546875
6460		64.453125
6461		62.500000
6462		66.406250
6463		64.453125
6464		68.359375
6465		66.406250
6466		70.312500
6467		68.359375
6468		72.265625
6469		70.312500
6470		74.218750
6471		70.312500
6472		78.125000
6473		72.265625
6474		78.125000
6475		76.171875
6476		78.125000
6477		78.125000
6478		80.078125
6479		80.078125
6480		82.031250
6481		80.078125
6482		83.984375
6483		82.031250
6484		85.937500
6485		83.984375
6486		85.937500
6487		83.984375
6488		89.843750
6489		83.984375
6490		89.843750
6491		85.937500
6492		89.843750
6493		87.890625
6494		91.796875
6495		89.843750
6496		91.796875
6497		91.796875
6498		93.750000
6499		91.796875
6500		93.750000
6501		93.750000
6502		95.703125
6503		93.750000
6504		97.656250
6505		93.750000
6506		99.609375
6507		93.750000
6508		99.609375
6509		95.703125
6510		99.609375
6511		97.656250
6512		99.609375
6513		97.656250
6514		99.609375
6515		97.656250
6516		101.562500
6517		99.609375
6518		101.562500
6519		99.609375
6520		101.562500
6521		99.609375
6522		103.515625
6523		99.609375
6524		101.562500
6525		99.609375
6526		103.515625
6527		101.562500
6528		103.515625
6529		101.562500
6530		103.515625
6531		101.562500
6532		103.515625
6533		101.562500
6534		103.515625
6535		101.562500
6536		103.515625
6537		101.562500
6538		103.515625
6539		99.609375
6540		103.515625
6541		101.562500
6542		103.515625
6543		101.562500
6544		103.515625
6545		99.609375
6546		103.515625
6547		99.609375
6548		103.515625
6549		99.609375
6550		101.562500
6551		99.609375
6552		101.562500
6553		99.609375
6554		101.562500
6555		97.656250
6556		101.562500
6557		97.656250
6558		99.609375
6559		97.656250
6560		99.609375
6561		95.703125
6562		99.609375
6563		95.703125
6564		97.656250
6565		95.703125
6566		97.656250
6567		93.750000
6568		95.703125
6569		93.750000
6570		95.703125
6571		91.796875
6572		93.750000
6573		91.796875
6574		93.750000
6575		89.843750
6576		91.796875
6577		87.890625
6578		91.796875
6579		87.890625
6580		89.843750
6581		85.937500
6582		89.843750
6583		85.937500
6584		87.890625
6585		83.984375
6586		85.937500
6587		82.031250
6588		85.937500
6589		80.078125
6590		83.984375
6591		80.078125
6592		82.031250
6593		78.125000
6594		80.078125
6595		76.171875
6596		78.125000
6597		74.218750
6598		78.125000
6599		72.265625
6600		76.171875
6601		70.312500
6602		74.218750
6603		68.359375
6604		72.265625
6605		66.406250
6606		70.312500
6607		64.453125
6608		68.359375
6609		62.500000
6610		66.406250
6611		60.546875
6612		64.453125
6613		58.593750
6614		62.500000
6615		56.640625
6616		60.546875
6617		54.687500
6618		58.593750
6619		52.734375
6620		56.640625
6621		50.781250
6622		54.687500
6623		46.875000
6624		52.734375
6625		46.875000
6626		48.828125
6627		42.968750
6628		46.875000
6629		41.015625
6630		44.921875
6631		39.062500
6632		42.968750
6633		37.109375
6634		41.015625
6635		33.203125
6636		37.109375
6637		31.250000
6638		35.156250
6639		29.296875
6640		33.203125
6641		27.343750
6642		31.250000
6643		23.437500
6644		27.343750
6645		21.484375
6646		25.390625
6647		19.531250
6648		23.437500
6649		17.578125
6650		21.484375
6651		13.671875
6652		17.578125
6653		11.718750
6654		15.625000
6655		9.765625
6656		13.671875
6657		5.859375
6658		9.765625
6659		3.906250
6660		7.812500
6661		1.953125
6662		5.859375
6663		-1.953125
6664		1.953125
6665		-3.906250
6666		0.000000
6667		-5.859375
6668		-1.953125
6669		-9.765625
6670		-5.859375
6671		-11.718750
6672		-7.812500
6673		-13.671875
6674		-9.765625
6675		-15.625000
6676		-11.718750
6677		-19.531250
6678		-15.625000
6679		-21.484375
6680		-17.578125
6681		-23.437500
6682		-19.531250
6683		-27.343750
6684		-23.437500
6685		-29.296875
6686		-25.390625
6687		-31.250000
6688		-27.343750
6689		-35.156250
6690		-29.296875
6691		-35.156250
6692		-33.203125
6693		-39.062500
6694		-35.156250
6695		-41.015625
6696		-37.109375
6697		-42.968750
6698		-39.062500
6699		-44.921875
6700		-41.015625
6701		-46.875000
6702		-44.921875
6703		-48.828125
6704		-46.875000
6705		-50.781250
6706		-46.875000
6707		-54.687500
6708		-50.781250
6709		-56.640625
6710		-52.734375
6711		-58.593750
6712		-54.687500
6713		-60.546875
6714		-56.640625
6715		-60.546875
6716		-56.640625
6717		-62.500000
6718		-60.546875
6719		-64.453125
6720		-62.500000
6721		-66.406250
6722		-62.500000
6723		-68.359375
6724		-64.453125
6725		-70.312500
6726		-66.406250
6727		-72.265625
6728		-68.359375
6729		-72.265625
6730		-70.312500
6731		-74.218750
6732		-72.265625
6733		-76.171875
6734		-72.265625
6735		-76.171875
6736		-74.218750
6737		-78.125000
6738		-74.218750
6739		-80.078125
6740		-76.171875
6741		-80.078125
6742		-78.125000
6743		-82.031250
6744		-78.125000
6745		-82.031250
6746		-80.078125
6747		-82.031250
6748		-80.078125
6749		-83.984375
6750		-82.031250
6751		-83.984375
6752		-82.031250
6753		-85.937500
6754		-82.031250
6755		-85.937500
6756		-83.984375
6757		-85.937500
6758		-83.984375
6759		-87.890625
6760		-83.984375
6761		-87.890625
6762		-85.937500
6763		-87.890625
6764		-85.937500
6765		-87.890625
6766		-85.937500
6767		-87.890625
6768		-85.937500
6769		-87.890625
6770		-85.937500
6771		-87.890625
6772		-85.937500
6773		-87.890625
6774		-85.937500
6775		-87.890625
6776		-85.937500
6777		-87.890625
6778		-83.984375
6779		-87.890625
6780		-85.937500
6781		-85.937500
6782		-83.984375
6783		-85.937500
6784		-83.984375
6785		-85.937500
6786		-83.984375
6787		-85.937500
6788		-82.031250
6789		-83.984375
6790		-82.031250
6791		-83.984375
6792		-82.031250
6793		-83.984375
6794		-80.078125
6795		-82.031250
6796		-80.078125
6797		-82.031250
6798		-78.125000
6799		-80.078125
6800		-78.125000
6801		-78.125000
6802		-76.171875
6803		-78.125000
6804		-74.218750
6805		-76.171875
6806		-74.218750
6807		-76.171875
6808		-72.265625
6809		-74.218750
6810		-70.312500
6811		-74.218750
6812		-70.312500
6813		-70.312500
6814		-68.359375
6815		-70.312500
6816		-66.406250
6817		-68.359375
6818		-64.453125
6819		-66.406250
6820		-62.500000
6821		-64.453125
6822		-60.546875
6823		-62.500000
6824		-58.593750
6825		-60.546875
6826		-58.593750
6827		-58.593750
6828		-56.640625
6829		-56.640625
6830		-54.687500
6831		-54.687500
6832		-50.781250
6833		-52.734375
6834		-48.828125
6835		-50.781250
6836		-48.828125
6837		-48.828125
6838		-44.921875
6839		-46.875000
6840		-42.968750
6841		-44.921875
6842		-41.015625
6843		-42.968750
6844		-39.062500
6845		-41.015625
6846		-37.109375
6847		-39.062500
6848		-33.203125
6849		-35.156250
6850		-31.250000
6851		-33.203125
6852		-29.296875
6853		-31.250000
6854		-27.343750
6855		-29.296875
6856		-25.390625
6857		-25.390625
6858		-21.484375
6859		-23.437500
6860		-19.531250
6861		-21.484375
6862		-17.578125
6863		-19.531250
6864		-15.625000
6865		-15.625000
6866		-11.718750
6867		-13.671875
6868		-9.765625
6869		-11.718750
6870		-7.812500
6871		-7.812500
6872		-3.906250
6873		-5.859375
6874		-1.953125
6875		-3.906250
6876		0.000000
6877		-1.953125
6878		3.906250
6879		1.953125
6880		5.859375
6881		3.906250
6882		7.812500
6883		7.812500
6884		9.765625
6885		9.765625
6886		13.671875
6887		11.718750
6888		15.625000
6889		13.671875
6890		17.578125
6891		17.578125
6892		21.484375
6893		19.531250
6894		23.437500
6895		21.484375
6896		25.390625
6897		23.437500
6898		27.343750
6899		27.343750
6900		31.250000
6901		29.296875
6902		33.203125
6903		31.250000
6904		35.156250
6905		33.203125
6906		39.062500
6907		37.109375
6908		41.015625
6909		39.062500
6910		42.968750
6911		41.015625
6912		44.921875
6913		42.968750
6914		46.875000
6915		44.921875
6916		48.828125
6917		46.875000
6918		50.781250
6919		50.781250
6920		54.687500
6921		52.734375
6922		56.640625
6923		54.687500
6924		58.593750
6925		56.640625
6926		60.546875
6927		58.593750
6928		62.500000
6929		60.546875
6930		64.453125
6931		62.500000
6932		66.406250
6933		64.453125
6934		68.359375
6935		66.406250
6936		70.312500
6937		68.359375
6938		72.265625
6939		70.312500
6940		74.218750
6941		72.265625
6942		74.218750
6943		72.265625
6944		76.171875
6945		74.218750
6946		78.125000
6947		76.171875
6948		80.078125
6949		78.125000
6950		82.031250
6951		80.078125
6952		82.031250
6953		82.031250
6954		83.984375
6955		82.031250
6956		85.937500
6957		83.984375
6958		87.890625
6959		85.937500
6960		87.890625
6961		85.937500
6962		89.843750
6963		87.890625
6964		91.796875
6965		89.843750
6966		91.796875
6967		89.843750
6968		93.750000
6969		91.796875
6970		93.750000
6971		91.796875
6972		95.703125
6973		93.750000
6974		95.703125
6975		93.750000
6976		95.703125
6977		95.703125
6978		97.656250
6979		95.703125
6980		97.656250
6981		95.703125
6982		99.609375
6983		97.656250
6984		99.609375
6985		97.656250
6986		99.609375
6987		97.656250
6988		101.562500
6989		99.609375
6990		101.562500
6991		99.609375
6992		101.562500
6993		99.609375
6994		101.562500
6995		99.609375
6996		103.515625
6997		101.562500
6998		103.515625
6999		101.562500
7000		103.515625
7001		101.562500
7002		103.515625
7003		101.562500
7004		103.515625
7005		101.562500
7006		103.515625
7007		101.562500
7008		103.515625
7009		101.562500
7010		103.515625
7011		101.562500
7012		103.515625
7013		101.562500
7014		103.515625
7015		99.609375
7016		103.515625
7017		101.562500
7018		103.515625
7019		99.609375
7020		101.562500
7021		99.609375
7022		101.562500
7023		99.609375
7024		101.562500
7025		99.609375
7026		101.562500
7027		97.656250
7028		101.562500
7029		97.656250
7030		99.609375
7031		97.656250
7032		99.609375
7033		95.703125
7034		99.609375
7035		95.703125
7036		97.656250
7037		95.703125
7038		97.656250
7039		93.750000
7040		95.703125
7041		93.750000
7042		95.703125
7043		91.796875
7044		95.703125
7045		89.843750
7046		93.750000
7047		89.843750
7048		93.750000
7049		87.890625
7050		91.796875
7051		87.890625
7052		89.843750
7053		85.937500
7054		89.843750
7055		83.984375
7056		87.890625
7057		83.984375
7058		85.937500
7059		82.031250
7060		85.937500
7061		80.078125
7062		83.984375
7063		78.125000
7064		82.031250
7065		78.125000
7066		80.078125
7067		76.171875
7068		78.125000
7069		74.218750
7070		78.125000
7071		72.265625
7072		76.171875
7073		70.312500
7074		74.218750
7075		68.359375
7076		72.265625
7077		66.406250
7078		70.312500
7079		64.453125
7080		68.359375
7081		62.500000
7082		66.406250
7083		60.546875
7084		64.453125
7085		58.593750
7086		62.500000
7087		56.640625
7088		60.546875
7089		54.687500
7090		58.593750
7091		52.734375
7092		56.640625
7093		50.781250
7094		52.734375
7095		46.875000
7096		50.781250
7097		44.921875
7098		48.828125
7099		42.968750
7100		46.875000
7101		41.015625
7102		44.921875
7103		39.062500
7104		42.968750
7105		37.109375
7106		39.062500
7107		33.203125
7108		37.109375
7109		31.250000
7110		35.156250
7111		29.296875
7112		33.203125
7113		25.390625
7114		29.296875
7115		23.437500
7116		27.343750
7117		21.484375
7118		25.390625
7119		19.531250
7120		23.437500
7121		15.625000
7122		19.531250
7123		13.671875
7124		17.578125
7125		11.718750
7126		15.625000
7127		7.812500
7128		13.671875
7129		5.859375
7130		9.765625
7131		3.906250
7132		7.812500
7133		1.953125
7134		5.859375
7135		-1.953125
7136		1.953125
7137		-3.906250
7138		0.000000
7139		-5.859375
7140		-1.953125
7141		-9.765625
7142		-5.859375
7143		-11.718750
7144		-7.812500
7145		-13.671875
7146		-9.765625
7147		-17.578125
7148		-13.671875
7149		-19.531250
7150		-15.625000
7151		-21.484375
7152		-17.578125
7153		-23.437500
7154		-19.531250
7155		-27.343750
7156		-23.437500
7157		-29.296875
7158		-25.390625
7159		-31.250000
7160		-27.343750
7161		-33.203125
7162		-29.296875
7163		-37.109375
7164		-33.203125
7165		-39.062500
7166		-35.156250
7167		-41.015625
7168		-37.109375
7169		-42.968750
7170		-39.062500
7171		-44.921875
7172		-41.015625
7173		-46.875000
7174		-42.968750
7175		-48.828125
7176		-46.875000
7177		-50.781250
7178		-48.828125
7179		-54.687500
7180		-50.781250
7181		-56.640625
7182		-52.734375
7183		-58.593750
7184		-54.687500
7185		-60.546875
7186		-56.640625
7187		-62.500000
7188		-58.593750
7189		-64.453125
7190		-60.546875
7191		-64.453125
7192		-62.500000
7193		-66.406250
7194		-64.453125
7195		-68.359375
7196		-64.453125
7197		-70.312500
7198		-66.406250
7199		-72.265625
7200		-68.359375
7201		-72.265625
7202		-70.312500
7203		-74.218750
7204		-72.265625
7205		-76.171875
7206		-72.265625
7207		-76.171875
7208		-74.218750
7209		-78.125000
7210		-76.171875
7211		-80.078125
7212		-76.171875
7213		-80.078125
7214		-78.125000
7215		-82.031250
7216		-78.125000
7217		-82.031250
7218		-80.078125
7219		-83.984375
7220		-80.078125
7221		-83.984375
7222		-82.031250
7223		-83.984375
7224		-82.031250
7225		-85.937500
7226		-82.031250
7227		-85.937500
7228		-83.984375
7229		-85.937500
7230		-83.984375
7231		-87.890625
7232		-83.984375
7233		-87.890625
7234		-85.937500
7235		-87.890625
7236		-85.937500
7237		-87.890625
7238		-85.937500
7239		-87.890625
7240		-85.937500
7241		-87.890625
7242		-85.937500
7243		-87.890625
7244		-85.937500
7245		-87.890625
7246		-85.937500
7247		-87.890625
7248		-85.937500
7249		-87.890625
7250		-85.937500
7251		-87.890625
7252		-85.937500
7253		-87.890625
7254		-83.984375
7255		-85.937500
7256		-83.984375
7257		-85.937500
7258		-83.984375
7259		-85.937500
7260		-82.031250
7261		-83.984375
7262		-82.031250
7263		-83.984375
7264		-82.031250
7265		-83.984375
7266		-80.078125
7267		-82.031250
7268		-80.078125
7269		-80.078125
7270		-78.125000
7271		-80.078125
7272		-78.125000
7273		-78.125000
7274		-76.171875
7275		-78.125000
7276		-76.171875
7277		-76.171875
7278		-74.218750
7279		-76.171875
7280		-72.265625
7281		-74.218750
7282		-70.312500
7283		-72.265625
7284		-68.359375
7285		-70.312500
7286		-68.359375
7287		-68.359375
7288		-66.406250
7289		-68.359375
7290		-64.453125
7291		-66.406250
7292		-62.500000
7293		-64.453125
7294		-60.546875
7295		-62.500000
7296		-58.593750
7297		-60.546875
7298		-56.640625
7299		-58.593750
7300		-54.687500
7301		-56.640625
7302		-52.734375
7303		-54.687500
7304		-50.781250
7305		-52.734375
7306		-48.828125
7307		-50.781250
7308		-46.875000
7309		-48.828125
7310		-44.921875
7311		-46.875000
7312		-42.968750
7313		-44.921875
7314		-41.015625
7315		-41.015625
7316		-39.062500
7317		-39.062500
7318		-37.109375
7319		-37.109375
7320		-33.203125
7321		-35.156250
7322		-31.250000
7323		-33.203125
7324		-29.296875
7325		-31.250000
7326		-27.343750
7327		-27.343750
7328		-23.437500
7329		-25.390625
7330		-21.484375
7331		-23.437500
7332		-19.531250
7333		-21.484375
7334		-15.625000
7335		-17.578125
7336		-13.671875
7337		-15.625000
7338		-11.718750
7339		-13.671875
7340		-9.765625
7341		-9.765625
7342		-5.859375
7343		-7.812500
7344		-3.906250
7345		-5.859375
7346		-1.953125
7347		-1.953125
7348		1.953125
7349		0.000000
7350		3.906250
7351		1.953125
7352		5.859375
7353		5.859375
7354		9.765625
7355		7.812500
7356		11.718750
7357		9.765625
7358		13.671875
7359		11.718750
7360		15.625000
7361		15.625000
7362		19.531250
7363		17.578125
7364		21.484375
7365		19.531250
7366		25.390625
7367		19.531250
7368		27.343750
7369		25.390625
7370		29.296875
7371		25.390625
7372		31.250000
7373		29.296875
7374		33.203125
7375		33.203125
7376		35.156250
7377		35.156250
7378		39.062500
7379		37.109375
7380		41.015625
7381		39.062500
7382		42.968750
7383		41.015625
7384		46.875000
7385		42.968750
7386		46.875000
7387		44.921875
7388		50.781250
7389		48.828125
7390		52.734375
7391		48.828125
7392		56.640625
7393		52.734375
7394		56.640625
7395		54.687500
7396		58.593750
7397		56.640625
7398		60.546875
7399		58.593750
7400		64.453125
7401		60.546875
7402		66.406250
7403		62.500000
7404		66.406250
7405		64.453125
7406		68.359375
7407		66.406250
7408		72.265625
7409		68.359375
7410		72.265625
7411		70.312500
7412		74.218750
7413		72.265625
7414		76.171875
7415		72.265625
7416		78.125000
7417		74.218750
7418		78.125000
7419		76.171875
7420		80.078125
7421		78.125000
7422		82.031250
7423		80.078125
7424		82.031250
7425		80.078125
7426		85.937500
7427		82.031250
7428		85.937500
7429		83.984375
7430		87.890625
7431		83.984375
7432		91.796875
7433		85.937500
7434		89.843750
7435		87.890625
7436		91.796875
7437		87.890625
7438		93.750000
7439		89.843750
7440		93.750000
7441		89.843750
7442		95.703125
7443		91.796875
7444		95.703125
7445		93.750000
7446		95.703125
7447		93.750000
7448		97.656250
7449		93.750000
7450		99.609375
7451		93.750000
7452		99.609375
7453		95.703125
7454		99.609375
7455		93.750000
7456		103.515625
7457		95.703125
7458		103.515625
7459		95.703125
7460		103.515625
7461		99.609375
7462		101.562500
7463		97.656250
7464		103.515625
7465		97.656250
7466		103.515625
7467		99.609375
7468		105.468750
7469		99.609375
7470		103.515625
7471		97.656250
7472		105.468750
7473		97.656250
7474		105.468750
7475		99.609375
7476		105.468750
7477		101.562500
7478		103.515625
7479		101.562500
7480		103.515625
7481		99.609375
7482		105.468750
7483		97.656250
7484		107.421875
7485		101.562500
7486		103.515625
7487		99.609375
7488		103.515625
7489		97.656250
7490		105.468750
7491		97.656250
7492		105.468750
7493		99.609375
7494		101.562500
7495		99.609375
7496		101.562500
7497		97.656250
7498		101.562500
7499		95.703125
7500		103.515625
7501		95.703125
7502		101.562500
7503		97.656250
7504		99.609375
7505		91.796875
7506		101.562500
7507		91.796875
7508		101.562500
7509		91.796875
7510		99.609375
7511		93.750000
7512		95.703125
7513		91.796875
7514		95.703125
7515		87.890625
7516		95.703125
7517		87.890625
7518		93.750000
7519		89.843750
7520		91.796875
7521		85.937500
7522		91.796875
7523		83.984375
7524		93.750000
7525		83.984375
7526		89.843750
7527		83.984375
7528		87.890625
7529		82.031250
7530		85.937500
7531		80.078125
7532		85.937500
7533		78.125000
7534		85.937500
7535		78.125000
7536		83.984375
7537		76.171875
7538		80.078125
7539		72.265625
7540		80.078125
7541		70.312500
7542		78.125000
7543		70.312500
7544		78.125000
7545		70.312500
7546		72.265625
7547		66.406250
7548		70.312500
7549		62.500000
7550		72.265625
7551		62.500000
7552		68.359375
7553		62.500000
7554		66.406250
7555		56.640625
7556		64.453125
7557		56.640625
7558		64.453125
7559		54.687500
7560		60.546875
7561		52.734375
7562		58.593750
7563		50.781250
7564		54.687500
7565		48.828125
7566		54.687500
7567		44.921875
7568		54.687500
7569		44.921875
7570		48.828125
7571		41.015625
7572		46.875000
7573		37.109375
7574		46.875000
7575		35.156250
7576		41.015625
7577		35.156250
7578		39.062500
7579		33.203125
7580		37.109375
7581		29.296875
7582		35.156250
7583		25.390625
7584		35.156250
7585		23.437500
7586		31.250000
7587		23.437500
7588		27.343750
7589		17.578125
7590		25.390625
7591		17.578125
7592		25.390625
7593		13.671875
7594		21.484375
7595		13.671875
7596		17.578125
7597		9.765625
7598		13.671875
7599		3.906250
7600		13.671875
7601		3.906250
7602		11.718750
7603		1.953125
7604		5.859375
7605		-1.953125
7606		3.906250
7607		-5.859375
7608		3.906250
7609		-7.812500
7610		0.000000
7611		-7.812500
7612		-3.906250
7613		-9.765625
7614		-5.859375
7615		-15.625000
7616		-7.812500
7617		-17.578125
7618		-9.765625
7619		-17.578125
7620		-11.718750
7621		-19.531250
7622		-15.625000
7623		-25.390625
7624		-17.578125
7625		-25.390625
7626		-21.484375
7627		-27.343750
7628		-21.484375
7629		-31.250000
7630		-25.390625
7631		-33.203125
7632		-29.296875
7633		-37.109375
7634		-29.296875
7635		-39.062500
7636		-33.203125
7637		-39.062500
7638		-35.156250
7639		-44.921875
7640		-37.109375
7641		-44.921875
7642		-41.015625
7643		-48.828125
7644		-41.015625
7645		-48.828125
7646		-44.921875
7647		-50.781250
7648		-46.875000
7649		-52.734375
7650		-48.828125
7651		-56.640625
7652		-48.828125
7653		-56.640625
7654		-52.734375
7655		-58.593750
7656		-54.687500
7657		-62.500000
7658		-56.640625
7659		-62.500000
7660		-58.593750
7661		-64.453125
7662		-60.546875
7663		-66.406250
7664		-62.500000
7665		-66.406250
7666		-64.453125
7667		-68.359375
7668		-66.406250
7669		-72.265625
7670		-66.406250
7671		-72.265625
7672		-68.359375
7673		-76.171875
7674		-68.359375
7675		-74.218750
7676		-72.265625
7677		-76.171875
7678		-74.218750
7679		-78.125000
7680		-74.218750
7681		-78.125000
7682		-76.171875
7683		-80.078125
7684		-76.171875
7685		-80.078125
7686		-78.125000
7687		-82.031250
7688		-78.125000
7689		-82.031250
7690		-80.078125
7691		-83.984375
7692		-80.078125
7693		-85.937500
7694		-82.031250
7695		-83.984375
7696		-82.031250
7697		-85.937500
7698		-82.031250
7699		-87.890625
7700		-83.984375
7701		-87.890625
7702		-83.984375
7703		-85.937500
7704		-83.984375
7705		-87.890625
7706		-83.984375
7707		-87.890625
7708		-85.937500
7709		-87.890625
7710		-85.937500
7711		-87.890625
7712		-83.984375
7713		-87.890625
7714		-85.937500
7715		-87.890625
7716		-83.984375
7717		-87.890625
7718		-83.984375
7719		-89.843750
7720		-83.984375
7721		-87.890625
7722		-83.984375
7723		-87.890625
7724		-83.984375
7725		-87.890625
7726		-82.031250
7727		-87.890625
7728		-82.031250
7729		-85.937500
7730		-82.031250
7731		-83.984375
7732		-82.031250
7733		-85.937500
7734		-80.078125
7735		-83.984375
7736		-80.078125
7737		-83.984375
7738		-78.125000
7739		-83.984375
7740		-78.125000
7741		-82.031250
7742		-76.171875
7743		-80.078125
7744		-74.218750
7745		-80.078125
7746		-74.218750
7747		-76.171875
7748		-74.218750
7749		-76.171875
7750		-72.265625
7751		-76.171875
7752		-70.312500
7753		-74.218750
7754		-68.359375
7755		-72.265625
7756		-66.406250
7757		-70.312500
7758		-66.406250
7759		-70.312500
7760		-64.453125
7761		-66.406250
7762		-62.500000
7763		-64.453125
7764		-62.500000
7765		-62.500000
7766		-58.593750
7767		-62.500000
7768		-56.640625
7769		-60.546875
7770		-54.687500
7771		-58.593750
7772		-52.734375
7773		-56.640625
7774		-50.781250
7775		-54.687500
7776		-48.828125
7777		-52.734375
7778		-46.875000
7779		-48.828125
7780		-46.875000
7781		-46.875000
7782		-42.968750
7783		-46.875000
7784		-41.015625
7785		-42.968750
7786		-39.062500
7787		-42.968750
7788		-35.156250
7789		-39.062500
7790		-33.203125
7791		-37.109375
7792		-31.250000
7793		-33.203125
7794		-29.296875
7795		-33.203125
7796		-27.343750
7797		-29.296875
7798		-25.390625
7799		-27.343750
7800		-21.484375
7801		-23.437500
7802		-19.531250
7803		-21.484375
7804		-17.578125
7805		-19.531250
7806		-13.671875
7807		-17.578125
7808		-11.718750
7809		-13.671875
7810		-9.765625
7811		-11.718750
7812		-7.812500
7813		-7.812500
7814		-3.906250
7815		-5.859375
7816		-1.953125
7817		-3.906250
7818		0.000000
7819		-1.953125
7820		3.906250
7821		0.000000
7822		5.859375
7823		1.953125
7824		9.765625
7825		5.859375
7826		9.765625
7827		7.812500
7828		13.671875
7829		9.765625
7830		15.625000
7831		13.671875
7832		17.578125
7833		17.578125
7834		21.484375
7835		19.531250
7836		23.437500
7837		21.484375
7838		25.390625
7839		23.437500
7840		29.296875
7841		25.390625
7842		29.296875
7843		29.296875
7844		33.203125
7845		31.250000
7846		35.156250
7847		33.203125
7848		37.109375
7849		35.156250
7850		41.015625
7851		39.062500
7852		42.968750
7853		41.015625
7854		44.921875
7855		41.015625
7856		48.828125
7857		44.921875
7858		48.828125
7859		46.875000
7860		50.781250
7861		48.828125
7862		54.687500
7863		50.781250
7864		54.687500
7865		52.734375
7866		58.593750
7867		56.640625
7868		60.546875
7869		58.593750
7870		62.500000
7871		60.546875
7872		64.453125
7873		60.546875
7874		66.406250
7875		64.453125
7876		68.359375
7877		66.406250
7878		68.359375
7879		66.406250
7880		70.312500
7881		68.359375
7882		72.265625
7883		72.265625
7884		76.171875
7885		72.265625
7886		76.171875
7887		74.218750
7888		78.125000
7889		74.218750
7890		80.078125
7891		78.125000
7892		82.031250
7893		80.078125
7894		82.031250
7895		80.078125
7896		83.984375
7897		82.031250
7898		85.937500
7899		83.984375
7900		87.890625
7901		83.984375
7902		87.890625
7903		85.937500
7904		89.843750
7905		87.890625
7906		91.796875
7907		87.890625
7908		91.796875
7909		89.843750
7910		93.750000
7911		89.843750
7912		93.750000
7913		91.796875
7914		95.703125
7915		93.750000
7916		95.703125
7917		93.750000
7918		97.656250
7919		95.703125
7920		99.609375
7921		95.703125
7922		99.609375
7923		95.703125
7924		101.562500
7925		97.656250
7926		99.609375
7927		97.656250
7928		101.562500
7929		97.656250
7930		101.562500
7931		99.609375
7932		101.562500
7933		99.609375
7934		103.515625
7935		99.609375
7936		103.515625
7937		99.609375
7938		103.515625
7939		99.609375
7940		103.515625
7941		101.562500
7942		103.515625
7943		99.609375
7944		105.468750
7945		101.562500
7946		105.468750
7947		101.562500
7948		103.515625
7949		101.562500
7950		103.515625
7951		101.562500
7952		105.468750
7953		101.562500
7954		105.468750
7955		101.562500
7956		105.468750
7957		101.562500
7958		105.468750
7959		101.562500
7960		103.515625
7961		99.609375
7962		103.515625
7963		99.609375
7964		103.515625
7965		99.609375
7966		103.515625
7967		99.609375
7968		101.562500
7969		99.609375
7970		101.562500
7971		97.656250
7972		101.562500
7973		97.656250
7974		101.562500
7975		95.703125
7976		101.562500
7977		95.703125
7978		99.609375
7979		95.703125
7980		99.609375
7981		95.703125
7982		97.656250
7983		93.750000
7984		97.656250
7985		91.796875
7986		97.656250
7987		91.796875
7988		95.703125
7989		89.843750
7990		93.750000
7991		89.843750
7992		91.796875
7993		87.890625
7994		91.796875
7995		85.937500
7996		89.843750
7997		85.937500
7998		89.843750
7999		83.984375
8000		87.890625
8001		82.031250
8002		85.937500
8003		82.031250
8004		85.937500
8005		80.078125
8006		83.984375
8007		78.125000
8008		82.031250
8009		76.171875
8010		80.078125
8011		76.171875
8012		80.078125
8013		72.265625
8014		78.125000
8015		72.265625
8016		74.218750
8017		68.359375
8018		72.265625
8019		68.359375
8020		72.265625
8021		66.406250
8022		70.312500
8023		64.453125
8024		68.359375
8025		62.500000
8026		66.406250
8027		60.546875
8028		64.453125
8029		56.640625
8030		62.500000
8031		56.640625
8032		60.546875
8033		54.687500
8034		58.593750
8035		50.781250
8036		56.640625
8037		48.828125
8038		54.687500
8039		46.875000
8040		50.781250
8041		44.921875
8042		48.828125
8043		42.968750
8044		46.875000
8045		39.062500
8046		42.968750
8047		37.109375
8048		42.968750
8049		35.156250
8050		39.062500
8051		33.203125
8052		37.109375
8053		31.250000
8054		35.156250
8055		27.343750
8056		33.203125
8057		25.390625
8058		29.296875
8059		21.484375
8060		27.343750
8061		21.484375
8062		25.390625
8063		17.578125
8064		23.437500
8065		15.625000
8066		19.531250
8067		13.671875
8068		17.578125
8069		9.765625
8070		15.625000
8071		7.812500
8072		11.718750
8073		5.859375
8074		9.765625
8075		1.953125
8076		5.859375
8077		0.000000
8078		3.906250
8079		-1.953125
8080		1.953125
8081		-5.859375
8082		0.000000
8083		-7.812500
8084		-3.906250
8085		-9.765625
8086		-5.859375
8087		-11.718750
8088		-7.812500
8089		-15.625000
8090		-9.765625
8091		-19.531250
8092		-13.671875
8093		-19.531250
8094		-15.625000
8095		-23.437500
8096		-19.531250
8097		-25.390625
8098		-21.484375
8099		-27.343750
8100		-23.437500
8101		-31.250000
8102		-25.390625
8103		-33.203125
8104		-27.343750
8105		-35.156250
8106		-29.296875
8107		-37.109375
8108		-33.203125
8109		-39.062500
8110		-35.156250
8111		-42.968750
8112		-37.109375
8113		-44.921875
8114		-41.015625
8115		-46.875000
8116		-42.968750
8117		-48.828125
8118		-44.921875
8119		-50.781250
8120		-46.875000
8121		-52.734375
8122		-48.828125
8123		-54.687500
8124		-50.781250
8125		-56.640625
8126		-52.734375
8127		-58.593750
8128		-54.687500
8129		-60.546875
8130		-56.640625
8131		-62.500000
8132		-58.593750
8133		-64.453125
8134		-60.546875
8135		-66.406250
8136		-62.500000
8137		-66.406250
8138		-62.500000
8139		-68.359375
8140		-64.453125
8141		-70.312500
8142		-66.406250
8143		-72.265625
8144		-68.359375
8145		-74.218750
8146		-70.312500
8147		-74.218750
8148		-70.312500
8149		-76.171875
8150		-72.265625
8151		-76.171875
8152		-74.218750
8153		-78.125000
8154		-74.218750
8155		-80.078125
8156		-76.171875
8157		-80.078125
8158		-76.171875
8159		-82.031250
8160		-78.125000
8161		-82.031250
8162		-80.078125
8163		-83.984375
8164		-80.078125
8165		-83.984375
8166		-80.078125
8167		-83.984375
8168		-82.031250
8169		-85.937500
8170		-82.031250
8171		-85.937500
8172		-83.984375
8173		-85.937500
8174		-83.984375
8175		-87.890625
8176		-83.984375
8177		-87.890625
8178		-83.984375
8179		-87.890625
8180		-83.984375
8181		-87.890625
8182		-83.984375
8183		-87.890625
8184		-85.937500
8185		-87.890625
8186		-85.937500
8187		-87.890625
8188		-83.984375
8189		-87.890625
8190		-83.984375
8191		-87.890625
8192		-83.984375
8193		-87.890625
8194		-83.984375
8195		-87.890625
8196		-83.984375
8197		-85.937500
8198		-83.984375
8199		-85.937500
8200		-82.031250
8201		-85.937500
8202		-82.031250
8203		-85.937500
8204		-80.078125
8205		-83.984375
8206		-80.078125
8207		-83.984375
8208		-80.078125
8209		-82.031250
8210		-78.125000
8211		-82.031250
8212		-78.125000
8213		-80.078125
8214		-76.171875
8215		-80.078125
8216		-76.171875
8217		-78.125000
8218		-76.171875
8219		-76.171875
8220		-72.265625
8221		-76.171875
8222		-72.265625
8223		-74.218750
8224		-70.312500
8225		-72.265625
8226		-68.359375
8227		-72.265625
8228		-68.359375
8229		-70.312500
8230		-66.406250
8231		-68.359375
8232		-64.453125
8233		-66.406250
8234		-62.500000
8235		-64.453125
8236		-62.500000
8237		-64.453125
8238		-60.546875
8239		-60.546875
8240		-58.593750
8241		-58.593750
8242		-56.640625
8243		-58.593750
8244		-54.687500
8245		-56.640625
8246		-52.734375
8247		-54.687500
8248		-48.828125
8249		-52.734375
8250		-48.828125
8251		-48.828125
8252		-44.921875
8253		-46.875000
8254		-42.968750
8255		-44.921875
8256		-41.015625
8257		-42.968750
8258		-39.062500
8259		-41.015625
8260		-37.109375
8261		-39.062500
8262		-33.203125
8263		-37.109375
8264		-31.250000
8265		-33.203125
8266		-29.296875
8267		-31.250000
8268		-27.343750
8269		-29.296875
8270		-25.390625
8271		-27.343750
8272		-21.484375
8273		-23.437500
8274		-19.531250
8275		-21.484375
8276		-17.578125
8277		-19.531250
8278		-15.625000
8279		-15.625000
8280		-11.718750
8281		-13.671875
8282		-9.765625
8283		-11.718750
8284		-7.812500
8285		-7.812500
8286		-3.906250
8287		-5.859375
8288		-1.953125
8289		-3.906250
8290		0.000000
8291		-1.953125
8292		3.906250
8293		1.953125
8294		5.859375
8295		3.906250
8296		7.812500
8297		5.859375
8298		9.765625
8299		7.812500
8300		13.671875
8301		11.718750
8302		15.625000
8303		13.671875
8304		19.531250
8305		15.625000
8306		21.484375
8307		19.531250
8308		23.437500
8309		21.484375
8310		25.390625
8311		23.437500
8312		29.296875
8313		27.343750
8314		31.250000
8315		29.296875
8316		33.203125
8317		31.250000
8318		35.156250
8319		33.203125
8320		37.109375
8321		35.156250
8322		41.015625
8323		39.062500
8324		42.968750
8325		41.015625
8326		44.921875
8327		42.968750
8328		46.875000
8329		44.921875
8330		48.828125
8331		46.875000
8332		52.734375
8333		48.828125
8334		52.734375
8335		52.734375
8336		56.640625
8337		54.687500
8338		58.593750
8339		56.640625
8340		60.546875
8341		58.593750
8342		62.500000
8343		60.546875
8344		64.453125
8345		60.546875
8346		66.406250
8347		64.453125
8348		68.359375
8349		64.453125
8350		70.312500
8351		68.359375
8352		72.265625
8353		70.312500
8354		72.265625
8355		70.312500
8356		74.218750
8357		72.265625
8358		78.125000
8359		74.218750
8360		78.125000
8361		76.171875
8362		80.078125
8363		78.125000
8364		82.031250
8365		80.078125
8366		83.984375
8367		80.078125
8368		83.984375
8369		82.031250
8370		85.937500
8371		83.984375
8372		87.890625
8373		83.984375
8374		87.890625
8375		85.937500
8376		89.843750
8377		87.890625
8378		91.796875
8379		87.890625
8380		91.796875
8381		89.843750
8382		93.750000
8383		91.796875
8384		93.750000
8385		91.796875
8386		95.703125
8387		93.750000
8388		97.656250
8389		93.750000
8390		97.656250
8391		95.703125
8392		97.656250
8393		95.703125
8394		99.609375
8395		95.703125
8396		99.609375
8397		97.656250
8398		99.609375
8399		97.656250
8400		101.562500
8401		99.609375
8402		101.562500
8403		99.609375
8404		101.562500
8405		99.609375
8406		103.515625
8407		99.609375
8408		103.515625
8409		99.609375
8410		103.515625
8411		101.562500
8412		103.515625
8413		101.562500
8414		103.515625
8415		101.562500
8416		103.515625
8417		99.609375
8418		103.515625
8419		101.562500
8420		103.515625
8421		101.562500
8422		105.468750
8423		101.562500
8424		103.515625
8425		101.562500
8426		105.468750
8427		101.562500
8428		103.515625
8429		101.562500
8430		103.515625
8431		99.609375
8432		103.515625
8433		99.609375
8434		103.515625
8435		99.609375
8436		103.515625
8437		99.609375
8438		101.562500
8439		99.609375
8440		101.562500
8441		97.656250
8442		101.562500
8443		97.656250
8444		101.562500
8445		97.656250
8446		99.609375
8447		97.656250
8448		99.609375
8449		95.703125
8450		99.609375
8451		93.750000
8452		99.609375
8453		93.750000
8454		97.656250
8455		91.796875
8456		95.703125
8457		91.796875
8458		95.703125
8459		91.796875
8460		93.750000
8461		89.843750
8462		93.750000
8463		89.843750
8464		91.796875
8465		87.890625
8466		91.796875
8467		85.937500
8468		89.843750
8469		85.937500
8470		87.890625
8471		82.031250
8472		85.937500
8473		82.031250
8474		85.937500
8475		80.078125
8476		83.984375
8477		80.078125
8478		82.031250
8479		76.171875
8480		82.031250
8481		76.171875
8482		80.078125
8483		72.265625
8484		78.125000
8485		72.265625
8486		76.171875
8487		70.312500
8488		74.218750
8489		68.359375
8490		74.218750
8491		66.406250
8492		70.312500
8493		64.453125
8494		68.359375
8495		62.500000
8496		66.406250
8497		60.546875
8498		64.453125
8499		58.593750
8500		62.500000
8501		56.640625
8502		60.546875
8503		54.687500
8504		58.593750
8505		52.734375
8506		56.640625
8507		50.781250
8508		54.687500
8509		46.875000
8510		52.734375
8511		44.921875
8512		50.781250
8513		42.968750
8514		48.828125
8515		41.015625
8516		44.921875
8517		39.062500
8518		42.968750
8519		37.109375
8520		41.015625
8521		33.203125
8522		39.062500
8523		31.250000
8524		37.109375
8525		29.296875
8526		33.203125
8527		27.343750
8528		31.250000
8529		23.437500
8530		29.296875
8531		21.484375
8532		25.390625
8533		19.531250
8534		23.437500
8535		17.578125
8536		21.484375
8537		13.671875
8538		19.531250
8539		11.718750
8540		15.625000
8541		9.765625
8542		13.671875
8543		5.859375
8544		11.718750
8545		3.906250
8546		7.812500
8547		1.953125
8548		5.859375
8549		-1.953125
8550		3.906250
8551		-3.906250
8552		0.000000
8553		-5.859375
8554		-1.953125
8555		-9.765625
8556		-3.906250
8557		-11.718750
8558		-7.812500
8559		-13.671875
8560		-9.765625
8561		-15.625000
8562		-11.718750
8563		-19.531250
8564		-15.625000
8565		-21.484375
8566		-17.578125
8567		-25.390625
8568		-19.531250
8569		-27.343750
8570		-21.484375
8571		-29.296875
8572		-25.390625
8573		-31.250000
8574		-27.343750
8575		-33.203125
8576		-29.296875
8577		-37.109375
8578		-31.250000
8579		-37.109375
8580		-35.156250
8581		-41.015625
8582		-35.156250
8583		-42.968750
8584		-39.062500
8585		-44.921875
8586		-41.015625
8587		-46.875000
8588		-42.968750
8589		-50.781250
8590		-44.921875
8591		-50.781250
8592		-46.875000
8593		-52.734375
8594		-48.828125
8595		-54.687500
8596		-50.781250
8597		-58.593750
8598		-52.734375
8599		-58.593750
8600		-56.640625
8601		-60.546875
8602		-56.640625
8603		-62.500000
8604		-58.593750
8605		-64.453125
8606		-60.546875
8607		-66.406250
8608		-62.500000
8609		-68.359375
8610		-64.453125
8611		-70.312500
8612		-66.406250
8613		-72.265625
8614		-68.359375
8615		-72.265625
8616		-70.312500
8617		-74.218750
8618		-70.312500
8619		-76.171875
8620		-72.265625
8621		-76.171875
8622		-72.265625
8623		-78.125000
8624		-74.218750
8625		-80.078125
8626		-76.171875
8627		-80.078125
8628		-76.171875
8629		-82.031250
8630		-78.125000
8631		-82.031250
8632		-80.078125
8633		-82.031250
8634		-80.078125
8635		-83.984375
8636		-80.078125
8637		-83.984375
8638		-82.031250
8639		-85.937500
8640		-82.031250
8641		-85.937500
8642		-82.031250
8643		-85.937500
8644		-83.984375
8645		-85.937500
8646		-83.984375
8647		-87.890625
8648		-83.984375
8649		-87.890625
8650		-83.984375
8651		-87.890625
8652		-83.984375
8653		-87.890625
8654		-85.937500
8655		-87.890625
8656		-85.937500
8657		-87.890625
8658		-83.984375
8659		-87.890625
8660		-83.984375
8661		-87.890625
8662		-83.984375
8663		-87.890625
8664		-83.984375
8665		-87.890625
8666		-83.984375
8667		-85.937500
8668		-83.984375
8669		-85.937500
8670		-83.984375
8671		-85.937500
8672		-83.984375
8673		-85.937500
8674		-82.031250
8675		-83.984375
8676		-82.031250
8677		-83.984375
8678		-80.078125
8679		-83.984375
8680		-80.078125
8681		-82.031250
8682		-78.125000
8683		-82.031250
8684		-76.171875
8685		-80.078125
8686		-76.171875
8687		-78.125000
8688		-76.171875
8689		-78.125000
8690		-74.218750
8691		-78.125000
8692		-72.265625
8693		-74.218750
8694		-72.265625
8695		-74.218750
8696		-70.312500
8697		-72.265625
8698		-68.359375
8699		-70.312500
8700		-66.406250
8701		-70.312500
8702		-64.453125
8703		-68.359375
8704		-64.453125
8705		-66.406250
8706		-62.500000
8707		-64.453125
8708		-60.546875
8709		-62.500000
8710		-58.593750
8711		-60.546875
8712		-56.640625
8713		-58.593750
8714		-54.687500
8715		-56.640625
8716		-52.734375
8717		-54.687500
8718		-50.781250
8719		-52.734375
8720		-48.828125
8721		-50.781250
8722		-46.875000
8723		-48.828125
8724		-44.921875
8725		-46.875000
8726		-42.968750
8727		-44.921875
8728		-41.015625
8729		-41.015625
8730		-37.109375
8731		-39.062500
8732		-35.156250
8733		-37.109375
8734		-33.203125
8735		-35.156250
8736		-29.296875
8737		-31.250000
8738		-29.296875
8739		-29.296875
8740		-25.390625
8741		-27.343750
8742		-23.437500
8743		-25.390625
8744		-21.484375
8745		-23.437500
8746		-17.578125
8747		-21.484375
8748		-15.625000
8749		-17.578125
8750		-13.671875
8751		-15.625000
8752		-11.718750
8753		-13.671875
8754		-7.812500
8755		-9.765625
8756		-5.859375
8757		-7.812500
8758		-3.906250
8759		-5.859375
8760		0.000000
8761		-1.953125
8762		1.953125
8763		0.000000
8764		3.906250
8765		1.953125
8766		7.812500
8767		5.859375
8768		9.765625
8769		7.812500
8770		11.718750
8771		9.765625
8772		13.671875
8773		13.671875
8774		17.578125
8775		15.625000
8776		19.531250
8777		17.578125
8778		21.484375
8779		19.531250
8780		25.390625
8781		21.484375
8782		27.343750
8783		25.390625
8784		29.296875
8785		27.343750
8786		33.203125
8787		29.296875
8788		33.203125
8789		33.203125
8790		37.109375
8791		35.156250
8792		39.062500
8793		37.109375
8794		41.015625
8795		39.062500
8796		42.968750
8797		41.015625
8798		46.875000
8799		44.921875
8800		48.828125
8801		46.875000
8802		50.781250
8803		48.828125
8804		52.734375
8805		50.781250
8806		54.687500
8807		52.734375
8808		56.640625
8809		52.734375
8810		58.593750
8811		56.640625
8812		60.546875
8813		58.593750
8814		62.500000
8815		60.546875
8816		64.453125
8817		62.500000
8818		66.406250
8819		64.453125
8820		68.359375
8821		66.406250
8822		70.312500
8823		68.359375
8824		72.265625
8825		70.312500
8826		74.218750
8827		72.265625
8828		76.171875
8829		74.218750
8830		78.125000
8831		76.171875
8832		78.125000
8833		76.171875
8834		82.031250
8835		78.125000
8836		82.031250
8837		80.078125
8838		83.984375
8839		82.031250
8840		85.937500
8841		83.984375
8842		87.890625
8843		83.984375
8844		87.890625
8845		85.937500
8846		89.843750
8847		85.937500
8848		89.843750
8849		87.890625
8850		91.796875
8851		89.843750
8852		93.750000
8853		89.843750
8854		93.750000
8855		91.796875
8856		95.703125
8857		93.750000
8858		95.703125
8859		91.796875
8860		97.656250
8861		93.750000
8862		97.656250
8863		95.703125
8864		99.609375
8865		95.703125
8866		99.609375
8867		97.656250
8868		99.609375
8869		97.656250
8870		101.562500
8871		97.656250
8872		101.562500
8873		99.609375
8874		101.562500
8875		97.656250
8876		103.515625
8877		99.609375
8878		103.515625
8879		99.609375
8880		103.515625
8881		101.562500
8882		103.515625
8883		101.562500
8884		103.515625
8885		101.562500
8886		103.515625
8887		101.562500
8888		105.468750
8889		101.562500
8890		105.468750
8891		101.562500
8892		103.515625
8893		101.562500
8894		105.468750
8895		101.562500
8896		105.468750
8897		101.562500
8898		105.468750
8899		101.562500
8900		105.468750
8901		101.562500
8902		103.515625
8903		101.562500
8904		103.515625
8905		99.609375
8906		103.515625
8907		99.609375
8908		103.515625
8909		99.609375
8910		103.515625
8911		99.609375
8912		101.562500
8913		97.656250
8914		101.562500
8915		97.656250
8916		101.562500
8917		97.656250
8918		99.609375
8919		95.703125
8920		99.609375
8921		95.703125
8922		99.609375
8923		95.703125
8924		97.656250
8925		93.750000
8926		97.656250
8927		91.796875
8928		95.703125
8929		91.796875
8930		95.703125
8931		91.796875
8932		93.750000
8933		89.843750
8934		93.750000
8935		87.890625
8936		91.796875
8937		85.937500
8938		91.796875
8939		85.937500
8940		89.843750
8941		85.937500
8942		87.890625
8943		83.984375
8944		85.937500
8945		82.031250
8946		85.937500
8947		80.078125
8948		83.984375
8949		80.078125
8950		82.031250
8951		78.125000
8952		80.078125
8953		76.171875
8954		80.078125
8955		74.218750
8956		78.125000
8957		72.265625
8958		76.171875
8959		70.312500
8960		74.218750
8961		68.359375
8962		72.265625
8963		66.406250
8964		70.312500
8965		64.453125
8966		68.359375
8967		62.500000
8968		66.406250
8969		60.546875
8970		64.453125
8971		58.593750
8972		64.453125
8973		56.640625
8974		60.546875
8975		54.687500
8976		58.593750
8977		52.734375
8978		56.640625
8979		48.828125
8980		54.687500
8981		48.828125
8982		50.781250
8983		44.921875
8984		50.781250
8985		42.968750
8986		46.875000
8987		41.015625
8988		44.921875
8989		39.062500
8990		42.968750
8991		37.109375
8992		41.015625
8993		33.203125
8994		37.109375
8995		31.250000
8996		35.156250
8997		29.296875
8998		33.203125
8999		25.390625
9000		31.250000
9001		23.437500
9002		27.343750
9003		21.484375
9004		25.390625
9005		17.578125
9006		23.437500
9007		17.578125
9008		19.531250
9009		11.718750
9010		17.578125
9011		9.765625
9012		15.625000
9013		7.812500
9014		13.671875
9015		5.859375
9016		11.718750
9017		3.906250
9018		7.812500
9019		0.000000
9020		5.859375
9021		-1.953125
9022		1.953125
9023		-3.906250
9024		0.000000
9025		-7.812500
9026		-1.953125
9027		-9.765625
9028		-3.906250
9029		-11.718750
9030		-7.812500
9031		-13.671875
9032		-9.765625
9033		-15.625000
9034		-13.671875
9035		-19.531250
9036		-15.625000
9037		-21.484375
9038		-17.578125
9039		-23.437500
9040		-19.531250
9041		-27.343750
9042		-23.437500
9043		-31.250000
9044		-25.390625
9045		-31.250000
9046		-27.343750
9047		-35.156250
9048		-29.296875
9049		-37.109375
9050		-31.250000
9051		-39.062500
9052		-35.156250
9053		-41.015625
9054		-37.109375
9055		-44.921875
9056		-39.062500
9057		-44.921875
9058		-41.015625
9059		-46.875000
9060		-42.968750
9061		-50.781250
9062		-44.921875
9063		-50.781250
9064		-46.875000
9065		-52.734375
9066		-50.781250
9067		-56.640625
9068		-50.781250
9069		-56.640625
9070		-52.734375
9071		-58.593750
9072		-54.687500
9073		-60.546875
9074		-56.640625
9075		-62.500000
9076		-60.546875
9077		-64.453125
9078		-60.546875
9079		-66.406250
9080		-62.500000
9081		-68.359375
9082		-64.453125
9083		-70.312500
9084		-66.406250
9085		-70.312500
9086		-66.406250
9087		-72.265625
9088		-68.359375
9089		-74.218750
9090		-70.312500
9091		-74.218750
9092		-72.265625
9093		-78.125000
9094		-74.218750
9095		-78.125000
9096		-74.218750
9097		-78.125000
9098		-74.218750
9099		-80.078125
9100		-76.171875
9101		-80.078125
9102		-78.125000
9103		-82.031250
9104		-78.125000
9105		-83.984375
9106		-80.078125
9107		-83.984375
9108		-80.078125
9109		-83.984375
9110		-82.031250
9111		-85.937500
9112		-82.031250
9113		-85.937500
9114		-82.031250
9115		-85.937500
9116		-83.984375
9117		-85.937500
9118		-83.984375
9119		-87.890625
9120		-83.984375
9121		-87.890625
9122		-83.984375
9123		-87.890625
9124		-83.984375
9125		-87.890625
9126		-85.937500
9127		-87.890625
9128		-83.984375
9129		-87.890625
9130		-83.984375
9131		-87.890625
9132		-83.984375
9133		-87.890625
9134		-83.984375
9135		-87.890625
9136		-83.984375
9137		-87.890625
9138		-83.984375
9139		-87.890625
9140		-82.031250
9141		-85.937500
9142		-83.984375
9143		-85.937500
9144		-82.031250
9145		-85.937500
9146		-82.031250
9147		-83.984375
9148		-80.078125
9149		-83.984375
9150		-80.078125
9151		-82.031250
9152		-78.125000
9153		-82.031250
9154		-78.125000
9155		-82.031250
9156		-78.125000
9157		-80.078125
9158		-76.171875
9159		-78.125000
9160		-74.218750
9161		-78.125000
9162		-74.218750
9163		-76.171875
9164		-72.265625
9165		-76.171875
9166		-72.265625
9167		-74.218750
9168		-70.312500
9169		-72.265625
9170		-68.359375
9171		-70.312500
9172		-66.406250
9173		-68.359375
9174		-64.453125
9175		-66.406250
9176		-64.453125
9177		-66.406250
9178		-60.546875
9179		-64.453125
9180		-60.546875
9181		-62.500000
9182		-58.593750
9183		-60.546875
9184		-56.640625
9185		-58.593750
9186		-54.687500
9187		-56.640625
9188		-52.734375
9189		-54.687500
9190		-48.828125
9191		-52.734375
9192		-48.828125
9193		-50.781250
9194		-46.875000
9195		-46.875000
9196		-42.968750
9197		-46.875000
9198		-41.015625
9199		-42.968750
9200		-39.062500
9201		-41.015625
9202		-37.109375
9203		-39.062500
9204		-35.156250
9205		-37.109375
9206		-33.203125
9207		-35.156250
9208		-29.296875
9209		-31.250000
9210		-27.343750
9211		-29.296875
9212		-25.390625
9213		-27.343750
9214		-23.437500
9215		-23.437500
9216		-19.531250
9217		-21.484375
9218		-17.578125
9219		-19.531250
9220		-15.625000
9221		-17.578125
9222		-11.718750
9223		-15.625000
9224		-9.765625
9225		-11.718750
9226		-7.812500
9227		-9.765625
9228		-5.859375
9229		-7.812500
9230		-1.953125
9231		-3.906250
9232		0.000000
9233		-1.953125
9234		1.953125
9235		0.000000
9236		5.859375
9237		3.906250
9238		7.812500
9239		5.859375
9240		9.765625
9241		7.812500
9242		11.718750
9243		9.765625
9244		15.625000
9245		13.671875
9246		17.578125
9247		15.625000
9248		21.484375
9249		17.578125
9250		23.437500
9251		21.484375
9252		25.390625
9253		23.437500
9254		27.343750
9255		25.390625
9256		31.250000
9257		27.343750
9258		33.203125
9259		31.250000
9260		35.156250
9261		33.203125
9262		39.062500
9263		35.156250
9264		39.062500
9265		37.109375
9266		42.968750
9267		39.062500
9268		44.921875
9269		42.968750
9270		46.875000
9271		44.921875
9272		48.828125
9273		46.875000
9274		52.734375
9275		48.828125
9276		52.734375
9277		50.781250
9278		54.687500
9279		52.734375
9280		56.640625
9281		54.687500
9282		58.593750
9283		56.640625
9284		62.500000
9285		60.546875
9286		64.453125
9287		60.546875
9288		66.406250
9289		62.500000
9290		68.359375
9291		66.406250
9292		68.359375
9293		66.406250
9294		70.312500
9295		68.359375
9296		74.218750
9297		70.312500
9298		74.218750
9299		70.312500
9300		78.125000
9301		72.265625
9302		78.125000
9303		74.218750
9304		80.078125
9305		78.125000
9306		82.031250
9307		78.125000
9308		82.031250
9309		80.078125
9310		83.984375
9311		82.031250
9312		85.937500
9313		82.031250
9314		87.890625
9315		83.984375
9316		89.843750
9317		83.984375
9318		89.843750
9319		85.937500
9320		91.796875
9321		87.890625
9322		91.796875
9323		89.843750
9324		93.750000
9325		89.843750
9326		93.750000
9327		91.796875
9328		93.750000
9329		91.796875
9330		97.656250
9331		91.796875
9332		97.656250
9333		93.750000
9334		99.609375
9335		93.750000
9336		99.609375
9337		93.750000
9338		101.562500
9339		95.703125
9340		101.562500
9341		97.656250
9342		101.562500
9343		97.656250
9344		101.562500
9345		99.609375
9346		101.562500
9347		97.656250
9348		103.515625
9349		97.656250
9350		103.515625
9351		99.609375
9352		105.468750
9353		99.609375
9354		105.468750
9355		99.609375
9356		105.468750
9357		99.609375
9358		105.468750
9359		101.562500
9360		103.515625
9361		101.562500
9362		103.515625
9363		99.609375
9364		105.468750
9365		99.609375
9366		105.468750
9367		99.609375
9368		105.468750
9369		99.609375
9370		105.468750
9371		99.609375
9372		105.468750
9373		99.609375
9374		105.468750
9375		97.656250
9376		105.468750
9377		99.609375
9378		103.515625
9379		99.609375
9380		103.515625
9381		97.656250
9382		103.515625
9383		97.656250
9384		103.515625
9385		97.656250
9386		103.515625
9387		95.703125
9388		103.515625
9389		95.703125
9390		101.562500
9391		93.750000
9392		101.562500
9393		95.703125
9394		97.656250
9395		95.703125
9396		97.656250
9397		93.750000
9398		97.656250
9399		91.796875
9400		97.656250
9401		89.843750
9402		95.703125
9403		89.843750
9404		93.750000
9405		87.890625
9406		93.750000
9407		87.890625
9408		91.796875
9409		85.937500
9410		91.796875
9411		85.937500
9412		87.890625
9413		82.031250
9414		87.890625
9415		82.031250
9416		87.890625
9417		78.125000
9418		85.937500
9419		78.125000
9420		83.984375
9421		76.171875
9422		83.984375
9423		74.218750
9424		82.031250
9425		74.218750
9426		80.078125
9427		74.218750
9428		76.171875
9429		72.265625
9430		74.218750
9431		68.359375
9432		74.218750
9433		66.406250
9434		72.265625
9435		64.453125
9436		72.265625
9437		62.500000
9438		68.359375
9439		60.546875
9440		66.406250
9441		58.593750
9442		64.453125
9443		58.593750
9444		62.500000
9445		56.640625
9446		58.593750
9447		50.781250
9448		58.593750
9449		50.781250
9450		56.640625
9451		46.875000
9452		54.687500
9453		44.921875
9454		52.734375
9455		42.968750
9456		50.781250
9457		41.015625
9458		48.828125
9459		39.062500
9460		44.921875
9461		37.109375
9462		41.015625
9463		33.203125
9464		39.062500
9465		31.250000
9466		39.062500
9467		27.343750
9468		37.109375
9469		25.390625
9470		33.203125
9471		23.437500
9472		31.250000
9473		19.531250
9474		29.296875
9475		19.531250
9476		25.390625
9477		17.578125
9478		21.484375
9479		15.625000
9480		19.531250
9481		11.718750
9482		17.578125
9483		7.812500
9484		15.625000
9485		5.859375
9486		13.671875
9487		1.953125
9488		9.765625
9489		0.000000
9490		7.812500
9491		-1.953125
9492		5.859375
9493		-1.953125
9494		1.953125
9495		-5.859375
9496		0.000000
9497		-9.765625
9498		-3.906250
9499		-11.718750
9500		-3.906250
9501		-15.625000
9502		-7.812500
9503		-17.578125
9504		-9.765625
9505		-19.531250
9506		-11.718750
9507		-23.437500
9508		-15.625000
9509		-23.437500
9510		-17.578125
9511		-25.390625
9512		-21.484375
9513		-27.343750
9514		-23.437500
9515		-33.203125
9516		-25.390625
9517		-33.203125
9518		-27.343750
9519		-37.109375
9520		-29.296875
9521		-39.062500
9522		-31.250000
9523		-42.968750
9524		-35.156250
9525		-42.968750
9526		-35.156250
9527		-44.921875
9528		-39.062500
9529		-46.875000
9530		-42.968750
9531		-50.781250
9532		-42.968750
9533		-52.734375
9534		-44.921875
9535		-54.687500
9536		-46.875000
9537		-56.640625
9538		-48.828125
9539		-58.593750
9540		-50.781250
9541		-60.546875
9542		-52.734375
9543		-60.546875
9544		-54.687500
9545		-62.500000
9546		-58.593750
9547		-64.453125
9548		-60.546875
9549		-68.359375
9550		-60.546875
9551		-68.359375
9552		-62.500000
9553		-72.265625
9554		-64.453125
9555		-72.265625
9556		-64.453125
9557		-74.218750
9558		-66.406250
9559		-76.171875
9560		-68.359375
9561		-74.218750
9562		-72.265625
9563		-76.171875
9564		-72.265625
9565		-80.078125
9566		-72.265625
9567		-80.078125
9568		-74.218750
9569		-82.031250
9570		-74.218750
9571		-82.031250
9572		-76.171875
9573		-83.984375
9574		-76.171875
9575		-83.984375
9576		-78.125000
9577		-83.984375
9578		-80.078125
9579		-83.984375
9580		-82.031250
9581		-85.937500
9582		-80.078125
9583		-87.890625
9584		-80.078125
9585		-87.890625
9586		-82.031250
9587		-87.890625
9588		-82.031250
9589		-89.843750
9590		-82.031250
9591		-87.890625
9592		-82.031250
9593		-89.843750
9594		-82.031250
9595		-87.890625
9596		-83.984375
9597		-87.890625
9598		-85.937500
9599		-89.843750
9600		-82.031250
9601		-89.843750
9602		-82.031250
9603		-89.843750
9604		-82.031250
9605		-89.843750
9606		-82.031250
9607		-89.843750
9608		-82.031250
9609		-87.890625
9610		-82.031250
9611		-87.890625
9612		-82.031250
9613		-85.937500
9614		-83.984375
9615		-85.937500
9616		-80.078125
9617		-85.937500
9618		-80.078125
9619		-85.937500
9620		-78.125000
9621		-83.984375
9622		-78.125000
9623		-83.984375
9624		-78.125000
9625		-83.984375
9626		-76.171875
9627		-82.031250
9628		-76.171875
9629		-78.125000
9630		-76.171875
9631		-80.078125
9632		-74.218750
9633		-80.078125
9634		-72.265625
9635		-78.125000
9636		-70.312500
9637		-76.171875
9638		-68.359375
9639		-76.171875
9640		-68.359375
9641		-72.265625
9642		-66.406250
9643		-72.265625
9644		-64.453125
9645		-68.359375
9646		-64.453125
9647		-66.406250
9648		-62.500000
9649		-66.406250
9650		-58.593750
9651		-64.453125
9652		-56.640625
9653		-64.453125
9654		-56.640625
9655		-62.500000
9656		-54.687500
9657		-58.593750
9658		-52.734375
9659		-56.640625
9660		-50.781250
9661		-54.687500
9662		-50.781250
9663		-50.781250
9664		-46.875000
9665		-50.781250
9666		-42.968750
9667		-48.828125
9668		-41.015625
9669		-46.875000
9670		-39.062500
9671		-44.921875
9672		-37.109375
9673		-42.968750
9674		-35.156250
9675		-39.062500
9676		-33.203125
9677		-39.062500
9678		-31.250000
9679		-33.203125
9680		-29.296875
9681		-31.250000
9682		-27.343750
9683		-31.250000
9684		-23.437500
9685		-29.296875
9686		-19.531250
9687		-25.390625
9688		-17.578125
9689		-23.437500
9690		-15.625000
9691		-19.531250
9692		-13.671875
9693		-19.531250
9694		-9.765625
9695		-15.625000
9696		-9.765625
9697		-11.718750
9698		-7.812500
9699		-9.765625
9700		-1.953125
9701		-9.765625
9702		-1.953125
9703		-5.859375
9704		1.953125
9705		-1.953125
9706		3.906250
9707		0.000000
9708		5.859375
9709		1.953125
9710		9.765625
9711		3.906250
9712		11.718750
9713		9.765625
9714		13.671875
9715		11.718750
9716		17.578125
9717		11.718750
9718		19.531250
9719		13.671875
9720		23.437500
9721		17.578125
9722		25.390625
9723		19.531250
9724		27.343750
9725		21.484375
9726		29.296875
9727		23.437500
9728		31.250000
9729		29.296875
9730		33.203125
9731		31.250000
9732		35.156250
9733		33.203125
9734		39.062500
9735		33.203125
9736		42.968750
9737		37.109375
9738		44.921875
9739		39.062500
9740		46.875000
9741		41.015625
9742		48.828125
9743		42.968750
9744		50.781250
9745		46.875000
9746		52.734375
9747		50.781250
9748		52.734375
9749		52.734375
9750		58.593750
9751		52.734375
9752		60.546875
9753		54.687500
9754		62.500000
9755		54.687500
9756		64.453125
9757		58.593750
9758		66.406250
9759		60.546875
9760		68.359375
9761		62.500000
9762		68.359375
9763		66.406250
9764		70.312500
9765		68.359375
9766		72.265625
9767		68.359375
9768		76.171875
9769		70.312500
9770		76.171875
9771		72.265625
9772		78.125000
9773		72.265625
9774		80.078125
9775		74.218750
9776		82.031250
9777		76.171875
9778		83.984375
9779		80.078125
9780		83.984375
9781		82.031250
9782		83.984375
9783		82.031250
9784		87.890625
9785		82.031250
9786		89.843750
9787		83.984375
9788		89.843750
9789		83.984375
9790		91.796875
9791		85.937500
9792		93.750000
9793		87.890625
9794		93.750000
9795		89.843750
9796		95.703125
9797		91.796875
9798		93.750000
9799		91.796875
9800		95.703125
9801		91.796875
9802		97.656250
9803		93.750000
9804		99.609375
9805		93.750000
9806		99.609375
9807		93.750000
9808		99.609375
9809		93.750000
9810		101.562500
9811		95.703125
9812		101.562500
9813		99.609375
9814		101.562500
9815		99.609375
9816		101.562500
9817		97.656250
9818		103.515625
9819		97.656250
9820		103.515625
9821		99.609375
9822		105.468750
9823		97.656250
9824		105.468750
9825		99.609375
9826		105.468750
9827		99.609375
9828		105.468750
9829		99.609375
9830		105.468750
9831		101.562500
9832		105.468750
9833		101.562500
9834		105.468750
9835		99.609375
9836		105.468750
9837		99.609375
9838		107.421875
9839		99.609375
9840		105.468750
9841		99.609375
9842		105.468750
9843		99.609375
9844		105.468750
9845		99.609375
9846		105.468750
9847		101.562500
9848		103.515625
9849		101.562500
9850		103.515625
9851		97.656250
9852		105.468750
9853		97.656250
9854		103.515625
9855		97.656250
9856		103.515625
9857		97.656250
9858		103.515625
9859		95.703125
9860		103.515625
9861		95.703125
9862		101.562500
9863		97.656250
9864		99.609375
9865		95.703125
9866		97.656250
9867		91.796875
9868		99.609375
9869		91.796875
9870		99.609375
9871		91.796875
9872		97.656250
9873		87.890625
9874		97.656250
9875		89.843750
9876		95.703125
9877		87.890625
9878		95.703125
9879		87.890625
9880		93.750000
9881		87.890625
9882		89.843750
9883		85.937500
9884		89.843750
9885		82.031250
9886		89.843750
9887		82.031250
9888		87.890625
9889		80.078125
9890		87.890625
9891		78.125000
9892		85.937500
9893		76.171875
9894		83.984375
9895		74.218750
9896		82.031250
9897		74.218750
9898		78.125000
9899		74.218750
9900		76.171875
9901		70.312500
9902		76.171875
9903		68.359375
9904		76.171875
9905		66.406250
9906		74.218750
9907		64.453125
9908		72.265625
9909		62.500000
9910		70.312500
9911		60.546875
9912		68.359375
9913		60.546875
9914		66.406250
9915		58.593750
9916		62.500000
9917		52.734375
9918		60.546875
9919		50.781250
9920		58.593750
9921		48.828125
9922		56.640625
9923		46.875000
9924		54.687500
9925		46.875000
9926		52.734375
9927		42.968750
9928		50.781250
9929		41.015625
9930		48.828125
9931		39.062500
9932		44.921875
9933		37.109375
9934		41.015625
9935		33.203125
9936		41.015625
9937		31.250000
9938		39.062500
9939		29.296875
9940		35.156250
9941		25.390625
9942		33.203125
9943		23.437500
9944		31.250000
9945		21.484375
9946		29.296875
9947		19.531250
9948		25.390625
9949		17.578125
9950		21.484375
9951		13.671875
9952		19.531250
9953		9.765625
9954		19.531250
9955		7.812500
9956		15.625000
9957		5.859375
9958		13.671875
9959		3.906250
9960		11.718750
9961		0.000000
9962		7.812500
9963		0.000000
9964		5.859375
9965		-1.953125
9966		1.953125
9967		-5.859375
9968		0.000000
9969		-9.765625
9970		-1.953125
9971		-11.718750
9972		-3.906250
9973		-13.671875
9974		-7.812500
9975		-17.578125
9976		-9.765625
9977		-19.531250
9978		-11.718750
9979		-21.484375
9980		-15.625000
9981		-23.437500
9982		-19.531250
9983		-25.390625
9984		-21.484375
9985		-29.296875
9986		-23.437500
9987		-33.203125
9988		-25.390625
9989		-35.156250
9990		-27.343750
9991		-37.109375
9992		-29.296875
9993		-39.062500
9994		-31.250000
9995		-41.015625
9996		-33.203125
9997		-41.015625
9998		-35.156250
9999		-42.968750
10000		-41.015625
